#
#
#
#
#POINTS:3882  ! Number of points - Wavelength in microns[um]
    0.005636  1.317000e-19
    0.005687  1.207000e-19
    0.005740  1.317000e-19
    0.005794  1.317000e-19
    0.005848  1.317000e-19
    0.005904  1.317000e-19
    0.005961  1.317000e-19
    0.006019  1.317000e-19
    0.006078  1.317000e-19
    0.006138  1.427000e-19
    0.006199  1.427000e-19
    0.006262  1.427000e-19
    0.006326  1.427000e-19
    0.006391  1.427000e-19
    0.006458  1.427000e-19
    0.006525  1.537000e-19
    0.006595  1.537000e-19
    0.006666  1.537000e-19
    0.006738  1.537000e-19
    0.006812  1.537000e-19
    0.006888  1.646000e-19
    0.006965  1.646000e-19
    0.007045  1.646000e-19
    0.007126  1.646000e-19
    0.007208  1.646000e-19
    0.007293  1.756000e-19
    0.007380  1.756000e-19
    0.007469  1.756000e-19
    0.007560  1.866000e-19
    0.007653  1.866000e-19
    0.007749  1.976000e-19
    0.007847  1.976000e-19
    0.007948  2.085000e-19
    0.008051  2.085000e-19
    0.008157  2.085000e-19
    0.008266  2.195000e-19
    0.008377  2.195000e-19
    0.008492  2.195000e-19
    0.008610  2.305000e-19
    0.008731  2.415000e-19
    0.008856  2.415000e-19
    0.008984  2.524000e-19
    0.009116  2.524000e-19
    0.009253  2.744000e-19
    0.009393  2.854000e-19
    0.009537  2.854000e-19
    0.009686  2.963000e-19
    0.009840  3.073000e-19
    0.009999  3.293000e-19
    0.010160  3.293000e-19
    0.010330  3.402000e-19
    0.010510  3.622000e-19
    0.010690  3.732000e-19
    0.010880  3.841000e-19
    0.011070  3.951000e-19
    0.011270  4.171000e-19
    0.011480  4.390000e-19
    0.011700  4.610000e-19
    0.011920  4.719000e-19
    0.012160  5.049000e-19
    0.012400  5.158000e-19
    0.012700  5.488000e-19
    0.012900  5.707000e-19
    0.013200  6.146000e-19
    0.013500  6.365000e-19
    0.013800  6.805000e-19
    0.014100  7.244000e-19
    0.014400  7.682000e-19
    0.014800  8.122000e-19
    0.015100  8.890000e-19
    0.015500  9.329000e-19
    0.015700  9.768000e-19
    0.015900  1.010000e-18
    0.016100  1.032000e-18
    0.016300  1.076000e-18
    0.016500  1.108000e-18
    0.016800  1.163000e-18
    0.017000  1.196000e-18
    0.017200  1.251000e-18
    0.017500  1.372000e-18
    0.017700  1.383000e-18
    0.018000  1.416000e-18
    0.018200  1.438000e-18
    0.018500  1.547000e-18
    0.018800  1.613000e-18
    0.019100  1.635000e-18
    0.019400  1.745000e-18
    0.019700  1.855000e-18
    0.020000  1.910000e-18
    0.020300  2.008000e-18
    0.020700  2.030000e-18
    0.021000  2.162000e-18
    0.021400  2.305000e-18
    0.021800  2.393000e-18
    0.022100  2.480000e-18
    0.022500  2.656000e-18
    0.023000  2.875000e-18
    0.023400  2.985000e-18
    0.023800  3.161000e-18
    0.024300  3.314000e-18
    0.024800  3.490000e-18
    0.025300  3.808000e-18
    0.025800  3.907000e-18
    0.026400  4.149000e-18
    0.027000  4.357000e-18
    0.027600  4.664000e-18
    0.028200  4.895000e-18
    0.028800  5.202000e-18
    0.029500  5.685000e-18
    0.030200  6.025000e-18
    0.031000  6.409000e-18
    0.031400  6.640000e-18
    0.031800  6.980000e-18
    0.032200  6.947000e-18
    0.032600  7.408000e-18
    0.033100  7.661000e-18
    0.033500  7.913000e-18
    0.034000  8.132000e-18
    0.034400  8.440000e-18
    0.034900  8.879000e-18
    0.035400  9.065000e-18
    0.035900  9.537000e-18
    0.036500  1.005000e-17
    0.037000  1.028000e-17
    0.037600  1.073000e-17
    0.038100  1.090000e-17
    0.038700  1.140000e-17
    0.039400  1.223000e-17
    0.040000  1.325000e-17
    0.040700  1.364000e-17
    0.041300  1.429000e-17
    0.042000  1.493000e-17
    0.042800  1.541000e-17
    0.043500  1.590000e-17
    0.044300  1.688000e-17
    0.045100  1.770000e-17
    0.045900  1.855000e-17
    0.046800  1.921000e-17
    0.047700  2.026000e-17
    0.048600  2.166000e-17
    0.049600  2.209000e-17
    0.050600  2.310000e-17
    0.051700  2.408000e-17
    0.052054  2.442000e-17
    0.052078  2.447000e-17
    0.052104  2.444000e-17
    0.052129  2.447000e-17
    0.052155  2.454000e-17
    0.052179  2.456000e-17
    0.052206  2.465000e-17
    0.052229  2.460000e-17
    0.052255  2.465000e-17
    0.052279  2.468000e-17
    0.052305  2.472000e-17
    0.052329  2.473000e-17
    0.052355  2.474000e-17
    0.052379  2.480000e-17
    0.052406  2.483000e-17
    0.052430  2.485000e-17
    0.052456  2.485000e-17
    0.052480  2.489000e-17
    0.052507  2.491000e-17
    0.052530  2.495000e-17
    0.052556  2.496000e-17
    0.052580  2.499000e-17
    0.052606  2.503000e-17
    0.052630  2.506000e-17
    0.052656  2.507000e-17
    0.052680  2.510000e-17
    0.052706  2.512000e-17
    0.052730  2.517000e-17
    0.052757  2.518000e-17
    0.052781  2.521000e-17
    0.052807  2.523000e-17
    0.052831  2.525000e-17
    0.052857  2.528000e-17
    0.052882  2.531000e-17
    0.052907  2.532000e-17
    0.052931  2.535000e-17
    0.052957  2.540000e-17
    0.052982  2.541000e-17
    0.053007  2.545000e-17
    0.053032  2.547000e-17
    0.053057  2.549000e-17
    0.053083  2.551000e-17
    0.053108  2.554000e-17
    0.053133  2.557000e-17
    0.053157  2.561000e-17
    0.053183  2.564000e-17
    0.053207  2.564000e-17
    0.053233  2.567000e-17
    0.053257  2.572000e-17
    0.053283  2.574000e-17
    0.053307  2.576000e-17
    0.053333  2.578000e-17
    0.053357  2.581000e-17
    0.053383  2.584000e-17
    0.053407  2.587000e-17
    0.053434  2.589000e-17
    0.053458  2.592000e-17
    0.053484  2.596000e-17
    0.053508  2.597000e-17
    0.053534  2.598000e-17
    0.053558  2.605000e-17
    0.053584  2.604000e-17
    0.053608  2.605000e-17
    0.053634  2.611000e-17
    0.053658  2.612000e-17
    0.053684  2.615000e-17
    0.053708  2.617000e-17
    0.053733  2.621000e-17
    0.053758  2.624000e-17
    0.053784  2.626000e-17
    0.053808  2.628000e-17
    0.053834  2.630000e-17
    0.053859  2.632000e-17
    0.053885  2.634000e-17
    0.053909  2.638000e-17
    0.053934  2.641000e-17
    0.053959  2.645000e-17
    0.053985  2.647000e-17
    0.054009  2.650000e-17
    0.054034  2.654000e-17
    0.054059  2.657000e-17
    0.054084  2.660000e-17
    0.054109  2.662000e-17
    0.054134  2.664000e-17
    0.054159  2.666000e-17
    0.054184  2.668000e-17
    0.054209  2.672000e-17
    0.054234  2.673000e-17
    0.054259  2.676000e-17
    0.054285  2.679000e-17
    0.054310  2.684000e-17
    0.054335  2.686000e-17
    0.054359  2.688000e-17
    0.054385  2.689000e-17
    0.054410  2.692000e-17
    0.054435  2.694000e-17
    0.054459  2.696000e-17
    0.054486  2.698000e-17
    0.054510  2.701000e-17
    0.054535  2.704000e-17
    0.054559  2.708000e-17
    0.054585  2.711000e-17
    0.054610  2.716000e-17
    0.054635  2.721000e-17
    0.054659  2.723000e-17
    0.054685  2.726000e-17
    0.054711  2.727000e-17
    0.054736  2.730000e-17
    0.054760  2.731000e-17
    0.054786  2.733000e-17
    0.054811  2.736000e-17
    0.054836  2.739000e-17
    0.054861  2.742000e-17
    0.054886  2.746000e-17
    0.054911  2.748000e-17
    0.054936  2.750000e-17
    0.054960  2.753000e-17
    0.054986  2.754000e-17
    0.055011  2.755000e-17
    0.055036  2.757000e-17
    0.055061  2.757000e-17
    0.055086  2.759000e-17
    0.055111  2.764000e-17
    0.055136  2.768000e-17
    0.055161  2.773000e-17
    0.055185  2.779000e-17
    0.055211  2.785000e-17
    0.055236  2.788000e-17
    0.055262  2.792000e-17
    0.055286  2.794000e-17
    0.055312  2.798000e-17
    0.055336  2.798000e-17
    0.055362  2.798000e-17
    0.055386  2.798000e-17
    0.055412  2.801000e-17
    0.055436  2.802000e-17
    0.055462  2.806000e-17
    0.055486  2.808000e-17
    0.055512  2.814000e-17
    0.055536  2.818000e-17
    0.055562  2.819000e-17
    0.055586  2.821000e-17
    0.055613  2.821000e-17
    0.055636  2.822000e-17
    0.055662  2.822000e-17
    0.055686  2.821000e-17
    0.055712  2.823000e-17
    0.055736  2.826000e-17
    0.055762  2.831000e-17
    0.055786  2.838000e-17
    0.055813  2.848000e-17
    0.055837  2.857000e-17
    0.055863  2.863000e-17
    0.055888  2.868000e-17
    0.055914  2.870000e-17
    0.055938  2.870000e-17
    0.055963  2.870000e-17
    0.055987  2.870000e-17
    0.056013  2.870000e-17
    0.056038  2.870000e-17
    0.056063  2.869000e-17
    0.056088  2.871000e-17
    0.056114  2.874000e-17
    0.056138  2.877000e-17
    0.056163  2.884000e-17
    0.056188  2.888000e-17
    0.056214  2.889000e-17
    0.056238  2.892000e-17
    0.056263  2.892000e-17
    0.056288  2.891000e-17
    0.056313  2.890000e-17
    0.056338  2.890000e-17
    0.056363  2.890000e-17
    0.056388  2.895000e-17
    0.056413  2.900000e-17
    0.056438  2.908000e-17
    0.056463  2.920000e-17
    0.056488  2.929000e-17
    0.056514  2.937000e-17
    0.056538  2.943000e-17
    0.056564  2.944000e-17
    0.056589  2.943000e-17
    0.056614  2.942000e-17
    0.056639  2.942000e-17
    0.056664  2.940000e-17
    0.056689  2.941000e-17
    0.056715  2.941000e-17
    0.056739  2.943000e-17
    0.056764  2.945000e-17
    0.056789  2.948000e-17
    0.056815  2.951000e-17
    0.056839  2.955000e-17
    0.056864  2.957000e-17
    0.056889  2.959000e-17
    0.056915  2.960000e-17
    0.056939  2.963000e-17
    0.056964  2.963000e-17
    0.056989  2.965000e-17
    0.057015  2.966000e-17
    0.057039  2.969000e-17
    0.057065  2.974000e-17
    0.057089  2.980000e-17
    0.057115  2.989000e-17
    0.057139  2.998000e-17
    0.057165  3.006000e-17
    0.057189  3.010000e-17
    0.057215  3.013000e-17
    0.057239  3.012000e-17
    0.057265  3.011000e-17
    0.057289  3.011000e-17
    0.057315  3.009000e-17
    0.057339  3.008000e-17
    0.057365  3.009000e-17
    0.057389  3.011000e-17
    0.057416  3.012000e-17
    0.057439  3.014000e-17
    0.057465  3.017000e-17
    0.057489  3.020000e-17
    0.057516  3.023000e-17
    0.057540  3.026000e-17
    0.057566  3.028000e-17
    0.057590  3.030000e-17
    0.057616  3.033000e-17
    0.057640  3.031000e-17
    0.057666  3.034000e-17
    0.057690  3.036000e-17
    0.057717  3.042000e-17
    0.057740  3.048000e-17
    0.057766  3.057000e-17
    0.057790  3.065000e-17
    0.057817  3.073000e-17
    0.057840  3.077000e-17
    0.057866  3.080000e-17
    0.057890  3.081000e-17
    0.057916  3.082000e-17
    0.057940  3.082000e-17
    0.057966  3.081000e-17
    0.057990  3.081000e-17
    0.058017  3.079000e-17
    0.058040  3.080000e-17
    0.058066  3.080000e-17
    0.058090  3.080000e-17
    0.058116  3.081000e-17
    0.058141  3.082000e-17
    0.058165  3.084000e-17
    0.058191  3.085000e-17
    0.058216  3.089000e-17
    0.058241  3.091000e-17
    0.058265  3.093000e-17
    0.058290  3.097000e-17
    0.058316  3.097000e-17
    0.058341  3.098000e-17
    0.058365  3.099000e-17
    0.058391  3.099000e-17
    0.058416  3.101000e-17
    0.058440  3.106000e-17
    0.058465  3.114000e-17
    0.058491  3.125000e-17
    0.058515  3.134000e-17
    0.058541  3.143000e-17
    0.058565  3.147000e-17
    0.058591  3.148000e-17
    0.058615  3.148000e-17
    0.058640  3.146000e-17
    0.058665  3.147000e-17
    0.058691  3.146000e-17
    0.058715  3.146000e-17
    0.058741  3.145000e-17
    0.058765  3.145000e-17
    0.058791  3.146000e-17
    0.058815  3.146000e-17
    0.058841  3.146000e-17
    0.058865  3.147000e-17
    0.058891  3.147000e-17
    0.058915  3.149000e-17
    0.058941  3.151000e-17
    0.058965  3.153000e-17
    0.058991  3.155000e-17
    0.059015  3.158000e-17
    0.059041  3.160000e-17
    0.059064  3.162000e-17
    0.059091  3.166000e-17
    0.059115  3.169000e-17
    0.059140  3.173000e-17
    0.059164  3.176000e-17
    0.059191  3.178000e-17
    0.059215  3.179000e-17
    0.059240  3.183000e-17
    0.059264  3.184000e-17
    0.059291  3.187000e-17
    0.059314  3.188000e-17
    0.059340  3.190000e-17
    0.059364  3.189000e-17
    0.059390  3.193000e-17
    0.059415  3.192000e-17
    0.059440  3.192000e-17
    0.059464  3.192000e-17
    0.059490  3.194000e-17
    0.059514  3.194000e-17
    0.059540  3.194000e-17
    0.059564  3.195000e-17
    0.059591  3.196000e-17
    0.059615  3.198000e-17
    0.059641  3.200000e-17
    0.059665  3.203000e-17
    0.059691  3.206000e-17
    0.059716  3.210000e-17
    0.059741  3.212000e-17
    0.059765  3.216000e-17
    0.059791  3.221000e-17
    0.059816  3.225000e-17
    0.059840  3.231000e-17
    0.059866  3.233000e-17
    0.059890  3.239000e-17
    0.059916  3.242000e-17
    0.059941  3.245000e-17
    0.059966  3.249000e-17
    0.059990  3.252000e-17
    0.060016  3.255000e-17
    0.060040  3.256000e-17
    0.060066  3.258000e-17
    0.060090  3.259000e-17
    0.060116  3.261000e-17
    0.060140  3.261000e-17
    0.060165  3.261000e-17
    0.060190  3.261000e-17
    0.060216  3.261000e-17
    0.060240  3.263000e-17
    0.060266  3.262000e-17
    0.060290  3.263000e-17
    0.060316  3.267000e-17
    0.060340  3.266000e-17
    0.060366  3.271000e-17
    0.060390  3.272000e-17
    0.060416  3.276000e-17
    0.060440  3.279000e-17
    0.060466  3.282000e-17
    0.060490  3.287000e-17
    0.060516  3.292000e-17
    0.060540  3.297000e-17
    0.060566  3.302000e-17
    0.060590  3.309000e-17
    0.060616  3.315000e-17
    0.060640  3.321000e-17
    0.060665  3.328000e-17
    0.060689  3.332000e-17
    0.060715  3.340000e-17
    0.060739  3.344000e-17
    0.060764  3.347000e-17
    0.060789  3.350000e-17
    0.060815  3.353000e-17
    0.060839  3.356000e-17
    0.060865  3.357000e-17
    0.060889  3.357000e-17
    0.060915  3.357000e-17
    0.060940  3.357000e-17
    0.060964  3.357000e-17
    0.060989  3.360000e-17
    0.061015  3.360000e-17
    0.061040  3.362000e-17
    0.061064  3.363000e-17
    0.061090  3.365000e-17
    0.061115  3.368000e-17
    0.061140  3.369000e-17
    0.061165  3.372000e-17
    0.061190  3.375000e-17
    0.061215  3.379000e-17
    0.061240  3.382000e-17
    0.061265  3.386000e-17
    0.061290  3.388000e-17
    0.061315  3.396000e-17
    0.061340  3.401000e-17
    0.061365  3.407000e-17
    0.061390  3.413000e-17
    0.061415  3.421000e-17
    0.061440  3.429000e-17
    0.061465  3.435000e-17
    0.061490  3.446000e-17
    0.061515  3.452000e-17
    0.061540  3.461000e-17
    0.061565  3.467000e-17
    0.061590  3.472000e-17
    0.061615  3.474000e-17
    0.061640  3.479000e-17
    0.061665  3.479000e-17
    0.061690  3.480000e-17
    0.061715  3.481000e-17
    0.061740  3.481000e-17
    0.061765  3.480000e-17
    0.061791  3.481000e-17
    0.061815  3.481000e-17
    0.061840  3.482000e-17
    0.061865  3.483000e-17
    0.061891  3.485000e-17
    0.061915  3.486000e-17
    0.061940  3.487000e-17
    0.061965  3.488000e-17
    0.061991  3.489000e-17
    0.062016  3.492000e-17
    0.062040  3.494000e-17
    0.062065  3.496000e-17
    0.062091  3.497000e-17
    0.062116  3.500000e-17
    0.062140  3.502000e-17
    0.062165  3.506000e-17
    0.062191  3.510000e-17
    0.062216  3.515000e-17
    0.062240  3.521000e-17
    0.062265  3.528000e-17
    0.062290  3.534000e-17
    0.062316  3.542000e-17
    0.062340  3.549000e-17
    0.062366  3.557000e-17
    0.062390  3.563000e-17
    0.062416  3.567000e-17
    0.062440  3.571000e-17
    0.062466  3.575000e-17
    0.062490  3.577000e-17
    0.062516  3.578000e-17
    0.062540  3.579000e-17
    0.062566  3.579000e-17
    0.062591  3.579000e-17
    0.062616  3.578000e-17
    0.062640  3.580000e-17
    0.062666  3.580000e-17
    0.062690  3.579000e-17
    0.062716  3.579000e-17
    0.062740  3.579000e-17
    0.062766  3.580000e-17
    0.062790  3.579000e-17
    0.062816  3.581000e-17
    0.062840  3.580000e-17
    0.062866  3.581000e-17
    0.062890  3.582000e-17
    0.062916  3.582000e-17
    0.062940  3.585000e-17
    0.062965  3.583000e-17
    0.062989  3.585000e-17
    0.063015  3.587000e-17
    0.063039  3.588000e-17
    0.063065  3.590000e-17
    0.063089  3.591000e-17
    0.063115  3.593000e-17
    0.063139  3.594000e-17
    0.063165  3.594000e-17
    0.063189  3.596000e-17
    0.063215  3.598000e-17
    0.063239  3.599000e-17
    0.063264  3.603000e-17
    0.063289  3.601000e-17
    0.063315  3.605000e-17
    0.063339  3.605000e-17
    0.063364  3.607000e-17
    0.063389  3.609000e-17
    0.063415  3.611000e-17
    0.063439  3.612000e-17
    0.063464  3.613000e-17
    0.063489  3.615000e-17
    0.063515  3.618000e-17
    0.063539  3.619000e-17
    0.063564  3.621000e-17
    0.063589  3.623000e-17
    0.063614  3.625000e-17
    0.063639  3.628000e-17
    0.063664  3.629000e-17
    0.063689  3.631000e-17
    0.063714  3.632000e-17
    0.063740  3.634000e-17
    0.063764  3.636000e-17
    0.063790  3.639000e-17
    0.063814  3.640000e-17
    0.063839  3.641000e-17
    0.063864  3.643000e-17
    0.063889  3.646000e-17
    0.063914  3.649000e-17
    0.063939  3.651000e-17
    0.063964  3.651000e-17
    0.063989  3.655000e-17
    0.064014  3.657000e-17
    0.064039  3.658000e-17
    0.064064  3.660000e-17
    0.064089  3.663000e-17
    0.064114  3.663000e-17
    0.064139  3.665000e-17
    0.064164  3.667000e-17
    0.064188  3.671000e-17
    0.064213  3.673000e-17
    0.064238  3.673000e-17
    0.064263  3.675000e-17
    0.064288  3.677000e-17
    0.064313  3.680000e-17
    0.064338  3.682000e-17
    0.064363  3.683000e-17
    0.064388  3.686000e-17
    0.064413  3.688000e-17
    0.064438  3.689000e-17
    0.064462  3.691000e-17
    0.064488  3.693000e-17
    0.064513  3.697000e-17
    0.064537  3.698000e-17
    0.064562  3.700000e-17
    0.064587  3.702000e-17
    0.064613  3.703000e-17
    0.064637  3.707000e-17
    0.064663  3.709000e-17
    0.064687  3.711000e-17
    0.064713  3.712000e-17
    0.064737  3.715000e-17
    0.064762  3.717000e-17
    0.064787  3.719000e-17
    0.064813  3.720000e-17
    0.064837  3.723000e-17
    0.064863  3.723000e-17
    0.064887  3.726000e-17
    0.064913  3.728000e-17
    0.064937  3.730000e-17
    0.064963  3.732000e-17
    0.064987  3.735000e-17
    0.065013  3.736000e-17
    0.065037  3.738000e-17
    0.065062  3.741000e-17
    0.065087  3.743000e-17
    0.065113  3.746000e-17
    0.065136  3.749000e-17
    0.065162  3.750000e-17
    0.065185  3.751000e-17
    0.065212  3.753000e-17
    0.065236  3.755000e-17
    0.065262  3.757000e-17
    0.065286  3.759000e-17
    0.065312  3.761000e-17
    0.065336  3.763000e-17
    0.065361  3.766000e-17
    0.065386  3.767000e-17
    0.065412  3.770000e-17
    0.065436  3.772000e-17
    0.065461  3.773000e-17
    0.065486  3.776000e-17
    0.065512  3.776000e-17
    0.065536  3.780000e-17
    0.065561  3.782000e-17
    0.065586  3.784000e-17
    0.065612  3.785000e-17
    0.065636  3.787000e-17
    0.065661  3.790000e-17
    0.065686  3.792000e-17
    0.065711  3.795000e-17
    0.065737  3.794000e-17
    0.065761  3.797000e-17
    0.065787  3.800000e-17
    0.065811  3.802000e-17
    0.065836  3.805000e-17
    0.065861  3.807000e-17
    0.065887  3.809000e-17
    0.065912  3.809000e-17
    0.065937  3.812000e-17
    0.065961  3.813000e-17
    0.065987  3.815000e-17
    0.066011  3.818000e-17
    0.066036  3.818000e-17
    0.066060  3.821000e-17
    0.066086  3.824000e-17
    0.066110  3.824000e-17
    0.066136  3.826000e-17
    0.066160  3.829000e-17
    0.066186  3.832000e-17
    0.066210  3.834000e-17
    0.066236  3.835000e-17
    0.066260  3.838000e-17
    0.066286  3.839000e-17
    0.066310  3.844000e-17
    0.066336  3.845000e-17
    0.066360  3.845000e-17
    0.066386  3.849000e-17
    0.066411  3.852000e-17
    0.066436  3.852000e-17
    0.066460  3.854000e-17
    0.066486  3.857000e-17
    0.066511  3.859000e-17
    0.066536  3.861000e-17
    0.066560  3.861000e-17
    0.066586  3.863000e-17
    0.066611  3.866000e-17
    0.066636  3.868000e-17
    0.066660  3.870000e-17
    0.066687  3.871000e-17
    0.066711  3.872000e-17
    0.066736  3.876000e-17
    0.066760  3.878000e-17
    0.066786  3.882000e-17
    0.066810  3.882000e-17
    0.066835  3.883000e-17
    0.066860  3.886000e-17
    0.066885  3.890000e-17
    0.066910  3.891000e-17
    0.066935  3.893000e-17
    0.066960  3.895000e-17
    0.066985  3.899000e-17
    0.067010  3.899000e-17
    0.067035  3.899000e-17
    0.067060  3.903000e-17
    0.067086  3.904000e-17
    0.067110  3.906000e-17
    0.067135  3.909000e-17
    0.067160  3.910000e-17
    0.067186  3.912000e-17
    0.067210  3.914000e-17
    0.067235  3.916000e-17
    0.067260  3.918000e-17
    0.067286  3.922000e-17
    0.067310  3.922000e-17
    0.067335  3.924000e-17
    0.067360  3.928000e-17
    0.067385  3.929000e-17
    0.067410  3.932000e-17
    0.067435  3.933000e-17
    0.067460  3.935000e-17
    0.067485  3.937000e-17
    0.067510  3.939000e-17
    0.067534  3.941000e-17
    0.067559  3.942000e-17
    0.067584  3.943000e-17
    0.067610  3.946000e-17
    0.067634  3.948000e-17
    0.067659  3.951000e-17
    0.067684  3.953000e-17
    0.067710  3.953000e-17
    0.067734  3.958000e-17
    0.067760  3.959000e-17
    0.067784  3.960000e-17
    0.067810  3.962000e-17
    0.067834  3.964000e-17
    0.067860  3.968000e-17
    0.067884  3.970000e-17
    0.067910  3.971000e-17
    0.067933  3.972000e-17
    0.067960  3.974000e-17
    0.067984  3.977000e-17
    0.068010  3.977000e-17
    0.068034  3.982000e-17
    0.068059  3.982000e-17
    0.068084  3.987000e-17
    0.068110  3.987000e-17
    0.068133  3.987000e-17
    0.068160  3.992000e-17
    0.068183  3.993000e-17
    0.068209  3.994000e-17
    0.068233  3.997000e-17
    0.068258  3.998000e-17
    0.068283  4.001000e-17
    0.068309  4.001000e-17
    0.068333  4.004000e-17
    0.068358  4.007000e-17
    0.068383  4.009000e-17
    0.068409  4.011000e-17
    0.068433  4.012000e-17
    0.068458  4.013000e-17
    0.068483  4.015000e-17
    0.068509  4.020000e-17
    0.068533  4.020000e-17
    0.068558  4.022000e-17
    0.068583  4.023000e-17
    0.068608  4.027000e-17
    0.068632  4.030000e-17
    0.068658  4.031000e-17
    0.068683  4.031000e-17
    0.068708  4.036000e-17
    0.068732  4.038000e-17
    0.068758  4.038000e-17
    0.068783  4.039000e-17
    0.068808  4.044000e-17
    0.068832  4.043000e-17
    0.068857  4.049000e-17
    0.068882  4.049000e-17
    0.068907  4.049000e-17
    0.068932  4.051000e-17
    0.068956  4.052000e-17
    0.068982  4.055000e-17
    0.069007  4.057000e-17
    0.069032  4.060000e-17
    0.069056  4.061000e-17
    0.069082  4.064000e-17
    0.069106  4.066000e-17
    0.069131  4.065000e-17
    0.069156  4.070000e-17
    0.069182  4.069000e-17
    0.069207  4.074000e-17
    0.069232  4.075000e-17
    0.069256  4.076000e-17
    0.069281  4.080000e-17
    0.069306  4.083000e-17
    0.069331  4.084000e-17
    0.069356  4.085000e-17
    0.069381  4.087000e-17
    0.069407  4.089000e-17
    0.069430  4.091000e-17
    0.069455  4.091000e-17
    0.069480  4.098000e-17
    0.069505  4.096000e-17
    0.069530  4.099000e-17
    0.069555  4.098000e-17
    0.069580  4.102000e-17
    0.069606  4.101000e-17
    0.069630  4.107000e-17
    0.069655  4.106000e-17
    0.069680  4.110000e-17
    0.069706  4.113000e-17
    0.069730  4.113000e-17
    0.069755  4.116000e-17
    0.069780  4.119000e-17
    0.069806  4.121000e-17
    0.069829  4.121000e-17
    0.069855  4.122000e-17
    0.069879  4.125000e-17
    0.069906  4.128000e-17
    0.069929  4.129000e-17
    0.069955  4.130000e-17
    0.069979  4.135000e-17
    0.070006  4.136000e-17
    0.070028  4.137000e-17
    0.070055  4.139000e-17
    0.070078  4.141000e-17
    0.070105  4.141000e-17
    0.070129  4.145000e-17
    0.070154  4.146000e-17
    0.070178  4.150000e-17
    0.070204  4.148000e-17
    0.070229  4.149000e-17
    0.070254  4.154000e-17
    0.070278  4.156000e-17
    0.070305  4.154000e-17
    0.070329  4.159000e-17
    0.070354  4.163000e-17
    0.070378  4.161000e-17
    0.070404  4.167000e-17
    0.070429  4.170000e-17
    0.070454  4.169000e-17
    0.070479  4.170000e-17
    0.070504  4.171000e-17
    0.070529  4.173000e-17
    0.070553  4.178000e-17
    0.070579  4.180000e-17
    0.070603  4.180000e-17
    0.070628  4.181000e-17
    0.070653  4.182000e-17
    0.070678  4.188000e-17
    0.070703  4.184000e-17
    0.070728  4.189000e-17
    0.070753  4.190000e-17
    0.070778  4.195000e-17
    0.070803  4.194000e-17
    0.070828  4.198000e-17
    0.070852  4.196000e-17
    0.070879  4.199000e-17
    0.070903  4.197000e-17
    0.070929  4.203000e-17
    0.070952  4.205000e-17
    0.070979  4.206000e-17
    0.071003  4.210000e-17
    0.071029  4.212000e-17
    0.071053  4.212000e-17
    0.071079  4.214000e-17
    0.071103  4.214000e-17
    0.071129  4.219000e-17
    0.071152  4.224000e-17
    0.071178  4.222000e-17
    0.071202  4.224000e-17
    0.071228  4.223000e-17
    0.071252  4.228000e-17
    0.071278  4.229000e-17
    0.071302  4.229000e-17
    0.071328  4.230000e-17
    0.071352  4.239000e-17
    0.071378  4.240000e-17
    0.071402  4.244000e-17
    0.071428  4.237000e-17
    0.071452  4.240000e-17
    0.071478  4.244000e-17
    0.071502  4.245000e-17
    0.071528  4.245000e-17
    0.071552  4.247000e-17
    0.071578  4.251000e-17
    0.071602  4.256000e-17
    0.071628  4.253000e-17
    0.071652  4.254000e-17
    0.071677  4.258000e-17
    0.071701  4.260000e-17
    0.071727  4.257000e-17
    0.071751  4.262000e-17
    0.071777  4.265000e-17
    0.071801  4.269000e-17
    0.071827  4.268000e-17
    0.071851  4.271000e-17
    0.071877  4.271000e-17
    0.071901  4.272000e-17
    0.071927  4.275000e-17
    0.071951  4.274000e-17
    0.071977  4.282000e-17
    0.072001  4.278000e-17
    0.072027  4.278000e-17
    0.072051  4.283000e-17
    0.072077  4.284000e-17
    0.072101  4.291000e-17
    0.072127  4.287000e-17
    0.072151  4.290000e-17
    0.072177  4.292000e-17
    0.072200  4.294000e-17
    0.072226  4.297000e-17
    0.072250  4.300000e-17
    0.072276  4.305000e-17
    0.072301  4.301000e-17
    0.072326  4.303000e-17
    0.072350  4.306000e-17
    0.072376  4.311000e-17
    0.072401  4.307000e-17
    0.072426  4.310000e-17
    0.072451  4.312000e-17
    0.072476  4.317000e-17
    0.072501  4.318000e-17
    0.072526  4.318000e-17
    0.072550  4.322000e-17
    0.072576  4.322000e-17
    0.072601  4.323000e-17
    0.072626  4.321000e-17
    0.072651  4.325000e-17
    0.072676  4.328000e-17
    0.072701  4.332000e-17
    0.072725  4.330000e-17
    0.072750  4.334000e-17
    0.072775  4.335000e-17
    0.072800  4.337000e-17
    0.072824  4.338000e-17
    0.072850  4.341000e-17
    0.072875  4.341000e-17
    0.072900  4.342000e-17
    0.072924  4.346000e-17
    0.072950  4.350000e-17
    0.072974  4.352000e-17
    0.073000  4.354000e-17
    0.073024  4.352000e-17
    0.073050  4.357000e-17
    0.073074  4.354000e-17
    0.073101  4.357000e-17
    0.073124  4.360000e-17
    0.073150  4.366000e-17
    0.073174  4.360000e-17
    0.073201  4.365000e-17
    0.073223  4.369000e-17
    0.073249  4.364000e-17
    0.073273  4.371000e-17
    0.073299  4.371000e-17
    0.073323  4.374000e-17
    0.073349  4.375000e-17
    0.073373  4.376000e-17
    0.073399  4.371000e-17
    0.073423  4.380000e-17
    0.073449  4.389000e-17
    0.073473  4.378000e-17
    0.073500  4.383000e-17
    0.073523  4.385000e-17
    0.073549  4.386000e-17
    0.073573  4.386000e-17
    0.073599  4.389000e-17
    0.073623  4.384000e-17
    0.073649  4.391000e-17
    0.073673  4.397000e-17
    0.073699  4.398000e-17
    0.073722  4.396000e-17
    0.073748  4.396000e-17
    0.073772  4.398000e-17
    0.073798  4.400000e-17
    0.073822  4.402000e-17
    0.073848  4.406000e-17
    0.073872  4.409000e-17
    0.073898  4.407000e-17
    0.073922  4.413000e-17
    0.073947  4.419000e-17
    0.073972  4.414000e-17
    0.073998  4.414000e-17
    0.074022  4.417000e-17
    0.074048  4.422000e-17
    0.074072  4.419000e-17
    0.074098  4.425000e-17
    0.074121  4.422000e-17
    0.074147  4.420000e-17
    0.074171  4.422000e-17
    0.074197  4.427000e-17
    0.074221  4.435000e-17
    0.074246  4.434000e-17
    0.074271  4.426000e-17
    0.074297  4.432000e-17
    0.074320  4.435000e-17
    0.074346  4.439000e-17
    0.074371  4.441000e-17
    0.074396  4.437000e-17
    0.074420  4.441000e-17
    0.074446  4.436000e-17
    0.074470  4.443000e-17
    0.074496  4.445000e-17
    0.074520  4.446000e-17
    0.074546  4.447000e-17
    0.074570  4.451000e-17
    0.074597  4.448000e-17
    0.074620  4.450000e-17
    0.074646  4.452000e-17
    0.074669  4.454000e-17
    0.074696  4.454000e-17
    0.074719  4.460000e-17
    0.074745  4.461000e-17
    0.074769  4.455000e-17
    0.074795  4.467000e-17
    0.074819  4.460000e-17
    0.074845  4.467000e-17
    0.074869  4.457000e-17
    0.074895  4.468000e-17
    0.074919  4.469000e-17
    0.074944  4.470000e-17
    0.074969  4.473000e-17
    0.074995  4.471000e-17
    0.075019  4.474000e-17
    0.075045  4.472000e-17
    0.075069  4.488000e-17
    0.075095  4.491000e-17
    0.075119  4.496000e-17
    0.075144  4.494000e-17
    0.075169  4.495000e-17
    0.075195  4.496000e-17
    0.075219  4.500000e-17
    0.075244  4.500000e-17
    0.075269  4.503000e-17
    0.075294  4.504000e-17
    0.075319  4.503000e-17
    0.075344  4.506000e-17
    0.075369  4.506000e-17
    0.075394  4.511000e-17
    0.075419  4.509000e-17
    0.075444  4.513000e-17
    0.075469  4.513000e-17
    0.075494  4.515000e-17
    0.075519  4.516000e-17
    0.075544  4.519000e-17
    0.075569  4.519000e-17
    0.075593  4.523000e-17
    0.075618  4.522000e-17
    0.075643  4.523000e-17
    0.075669  4.526000e-17
    0.075693  4.527000e-17
    0.075719  4.529000e-17
    0.075743  4.533000e-17
    0.075769  4.534000e-17
    0.075793  4.534000e-17
    0.075819  4.537000e-17
    0.075843  4.536000e-17
    0.075869  4.540000e-17
    0.075893  4.540000e-17
    0.075919  4.540000e-17
    0.075943  4.544000e-17
    0.075969  4.542000e-17
    0.075993  4.547000e-17
    0.076019  4.548000e-17
    0.076042  4.549000e-17
    0.076068  4.553000e-17
    0.076092  4.555000e-17
    0.076118  4.556000e-17
    0.076142  4.555000e-17
    0.076168  4.556000e-17
    0.076193  4.559000e-17
    0.076218  4.557000e-17
    0.076242  4.561000e-17
    0.076268  4.560000e-17
    0.076293  4.565000e-17
    0.076318  4.563000e-17
    0.076342  4.568000e-17
    0.076368  4.568000e-17
    0.076393  4.568000e-17
    0.076417  4.574000e-17
    0.076442  4.574000e-17
    0.076468  4.575000e-17
    0.076491  4.577000e-17
    0.076517  4.578000e-17
    0.076541  4.578000e-17
    0.076567  4.581000e-17
    0.076591  4.581000e-17
    0.076616  4.583000e-17
    0.076641  4.585000e-17
    0.076667  4.587000e-17
    0.076691  4.589000e-17
    0.076717  4.592000e-17
    0.076741  4.592000e-17
    0.076767  4.593000e-17
    0.076792  4.593000e-17
    0.076817  4.598000e-17
    0.076841  4.598000e-17
    0.076867  4.601000e-17
    0.076891  4.601000e-17
    0.076917  4.601000e-17
    0.076940  4.605000e-17
    0.076966  4.605000e-17
    0.076990  4.607000e-17
    0.077016  4.607000e-17
    0.077040  4.610000e-17
    0.077066  4.610000e-17
    0.077091  4.612000e-17
    0.077116  4.614000e-17
    0.077140  4.617000e-17
    0.077166  4.617000e-17
    0.077191  4.620000e-17
    0.077216  4.620000e-17
    0.077240  4.619000e-17
    0.077267  4.624000e-17
    0.077290  4.624000e-17
    0.077316  4.624000e-17
    0.077340  4.625000e-17
    0.077366  4.628000e-17
    0.077390  4.630000e-17
    0.077415  4.631000e-17
    0.077440  4.632000e-17
    0.077465  4.635000e-17
    0.077490  4.635000e-17
    0.077515  4.635000e-17
    0.077539  4.637000e-17
    0.077566  4.639000e-17
    0.077590  4.641000e-17
    0.077615  4.640000e-17
    0.077639  4.642000e-17
    0.077665  4.643000e-17
    0.077690  4.646000e-17
    0.077715  4.648000e-17
    0.077740  4.649000e-17
    0.077765  4.650000e-17
    0.077789  4.653000e-17
    0.077814  4.652000e-17
    0.077839  4.655000e-17
    0.077864  4.656000e-17
    0.077889  4.657000e-17
    0.077914  4.659000e-17
    0.077939  4.661000e-17
    0.077964  4.662000e-17
    0.077989  4.663000e-17
    0.078014  4.661000e-17
    0.078039  4.665000e-17
    0.078064  4.665000e-17
    0.078089  4.669000e-17
    0.078113  4.671000e-17
    0.078139  4.669000e-17
    0.078164  4.673000e-17
    0.078189  4.672000e-17
    0.078212  4.673000e-17
    0.078238  4.677000e-17
    0.078262  4.678000e-17
    0.078288  4.680000e-17
    0.078312  4.682000e-17
    0.078338  4.682000e-17
    0.078362  4.682000e-17
    0.078388  4.685000e-17
    0.078412  4.687000e-17
    0.078438  4.685000e-17
    0.078462  4.687000e-17
    0.078488  4.691000e-17
    0.078511  4.691000e-17
    0.078538  4.693000e-17
    0.078562  4.694000e-17
    0.078588  4.695000e-17
    0.078611  4.697000e-17
    0.078637  4.700000e-17
    0.078661  4.698000e-17
    0.078687  4.700000e-17
    0.078711  4.704000e-17
    0.078737  4.703000e-17
    0.078761  4.706000e-17
    0.078787  4.706000e-17
    0.078811  4.705000e-17
    0.078837  4.710000e-17
    0.078861  4.709000e-17
    0.078887  4.710000e-17
    0.078911  4.714000e-17
    0.078937  4.715000e-17
    0.078960  4.717000e-17
    0.078987  4.716000e-17
    0.079010  4.716000e-17
    0.079036  4.718000e-17
    0.079060  4.719000e-17
    0.079086  4.721000e-17
    0.079109  4.723000e-17
    0.079135  4.724000e-17
    0.079160  4.726000e-17
    0.079186  4.725000e-17
    0.079209  4.727000e-17
    0.079235  4.729000e-17
    0.079259  4.731000e-17
    0.079286  4.730000e-17
    0.079309  4.735000e-17
    0.079336  4.736000e-17
    0.079359  4.737000e-17
    0.079386  4.739000e-17
    0.079409  4.741000e-17
    0.079434  4.742000e-17
    0.079458  4.741000e-17
    0.079485  4.741000e-17
    0.079508  4.744000e-17
    0.079534  4.742000e-17
    0.079558  4.747000e-17
    0.079585  4.746000e-17
    0.079608  4.748000e-17
    0.079634  4.751000e-17
    0.079658  4.750000e-17
    0.079684  4.751000e-17
    0.079708  4.749000e-17
    0.079734  4.755000e-17
    0.079758  4.752000e-17
    0.079784  4.758000e-17
    0.079808  4.757000e-17
    0.079833  4.760000e-17
    0.079857  4.760000e-17
    0.079883  4.760000e-17
    0.079907  4.764000e-17
    0.079933  4.765000e-17
    0.079957  4.766000e-17
    0.079983  4.767000e-17
    0.080007  4.764000e-17
    0.080033  4.767000e-17
    0.080057  4.768000e-17
    0.080083  4.771000e-17
    0.080107  4.772000e-17
    0.080132  4.771000e-17
    0.080157  4.778000e-17
    0.080183  4.775000e-17
    0.080206  4.772000e-17
    0.080231  4.779000e-17
    0.080256  4.777000e-17
    0.080281  4.778000e-17
    0.080306  4.779000e-17
    0.080331  4.781000e-17
    0.080356  4.781000e-17
    0.080381  4.784000e-17
    0.080407  4.785000e-17
    0.080431  4.786000e-17
    0.080457  4.787000e-17
    0.080481  4.789000e-17
    0.080506  4.791000e-17
    0.080530  4.790000e-17
    0.080557  4.792000e-17
    0.080581  4.794000e-17
    0.080606  4.793000e-17
    0.080630  4.793000e-17
    0.080656  4.795000e-17
    0.080680  4.799000e-17
    0.080706  4.800000e-17
    0.080730  4.803000e-17
    0.080756  4.799000e-17
    0.080780  4.800000e-17
    0.080806  4.803000e-17
    0.080830  4.803000e-17
    0.080856  4.803000e-17
    0.080880  4.808000e-17
    0.080906  4.807000e-17
    0.080930  4.809000e-17
    0.080955  4.807000e-17
    0.080980  4.812000e-17
    0.081005  4.809000e-17
    0.081029  4.813000e-17
    0.081054  4.812000e-17
    0.081080  4.813000e-17
    0.081104  4.816000e-17
    0.081129  4.819000e-17
    0.081155  4.816000e-17
    0.081180  4.820000e-17
    0.081205  4.819000e-17
    0.081229  4.825000e-17
    0.081255  4.824000e-17
    0.081280  4.826000e-17
    0.081305  4.822000e-17
    0.081330  4.823000e-17
    0.081354  4.824000e-17
    0.081379  4.826000e-17
    0.081404  4.823000e-17
    0.081429  4.826000e-17
    0.081454  4.828000e-17
    0.081479  4.826000e-17
    0.081504  4.827000e-17
    0.081529  4.829000e-17
    0.081554  4.832000e-17
    0.081579  4.831000e-17
    0.081604  4.834000e-17
    0.081629  4.834000e-17
    0.081654  4.834000e-17
    0.081679  4.835000e-17
    0.081704  4.837000e-17
    0.081728  4.839000e-17
    0.081753  4.838000e-17
    0.081778  4.837000e-17
    0.081803  4.841000e-17
    0.081828  4.840000e-17
    0.081853  4.842000e-17
    0.081878  4.843000e-17
    0.081903  4.840000e-17
    0.081927  4.842000e-17
    0.081953  4.844000e-17
    0.081978  4.848000e-17
    0.082003  4.846000e-17
    0.082028  4.849000e-17
    0.082053  4.852000e-17
    0.082077  4.851000e-17
    0.082102  4.852000e-17
    0.082127  4.853000e-17
    0.082152  4.852000e-17
    0.082177  4.854000e-17
    0.082202  4.852000e-17
    0.082226  4.858000e-17
    0.082252  4.854000e-17
    0.082277  4.855000e-17
    0.082302  4.859000e-17
    0.082326  4.860000e-17
    0.082352  4.858000e-17
    0.082377  4.859000e-17
    0.082402  4.863000e-17
    0.082427  4.865000e-17
    0.082452  4.865000e-17
    0.082476  4.867000e-17
    0.082501  4.870000e-17
    0.082526  4.870000e-17
    0.082552  4.871000e-17
    0.082576  4.873000e-17
    0.082602  4.873000e-17
    0.082626  4.871000e-17
    0.082651  4.870000e-17
    0.082676  4.875000e-17
    0.082702  4.873000e-17
    0.082726  4.875000e-17
    0.082752  4.875000e-17
    0.082776  4.876000e-17
    0.082801  4.878000e-17
    0.082825  4.881000e-17
    0.082851  4.882000e-17
    0.082875  4.883000e-17
    0.082900  4.880000e-17
    0.082925  4.888000e-17
    0.082951  4.888000e-17
    0.082975  4.888000e-17
    0.083000  4.890000e-17
    0.083025  4.886000e-17
    0.083050  4.886000e-17
    0.083075  4.884000e-17
    0.083100  4.884000e-17
    0.083125  4.881000e-17
    0.083149  4.887000e-17
    0.083174  4.883000e-17
    0.083199  4.886000e-17
    0.083224  4.892000e-17
    0.083249  4.891000e-17
    0.083275  4.891000e-17
    0.083299  4.896000e-17
    0.083324  4.895000e-17
    0.083349  4.897000e-17
    0.083374  4.898000e-17
    0.083399  4.895000e-17
    0.083424  4.899000e-17
    0.083448  4.898000e-17
    0.083474  4.901000e-17
    0.083497  4.898000e-17
    0.083523  4.898000e-17
    0.083547  4.895000e-17
    0.083573  4.895000e-17
    0.083597  4.895000e-17
    0.083623  4.898000e-17
    0.083647  4.894000e-17
    0.083673  4.902000e-17
    0.083697  4.901000e-17
    0.083723  4.901000e-17
    0.083747  4.904000e-17
    0.083773  4.903000e-17
    0.083797  4.902000e-17
    0.083822  4.908000e-17
    0.083846  4.907000e-17
    0.083872  4.911000e-17
    0.083896  4.906000e-17
    0.083922  4.910000e-17
    0.083946  4.910000e-17
    0.083972  4.907000e-17
    0.083995  4.908000e-17
    0.084022  4.904000e-17
    0.084046  4.901000e-17
    0.084072  4.906000e-17
    0.084096  4.908000e-17
    0.084122  4.911000e-17
    0.084146  4.915000e-17
    0.084171  4.917000e-17
    0.084195  4.924000e-17
    0.084220  4.921000e-17
    0.084244  4.925000e-17
    0.084272  4.929000e-17
    0.084294  4.928000e-17
    0.084321  4.926000e-17
    0.084344  4.930000e-17
    0.084371  4.926000e-17
    0.084394  4.930000e-17
    0.084420  4.928000e-17
    0.084445  4.929000e-17
    0.084471  4.931000e-17
    0.084494  4.929000e-17
    0.084519  4.929000e-17
    0.084543  4.934000e-17
    0.084570  4.933000e-17
    0.084593  4.932000e-17
    0.084619  4.932000e-17
    0.084644  4.939000e-17
    0.084669  4.940000e-17
    0.084694  4.935000e-17
    0.084719  4.940000e-17
    0.084744  4.939000e-17
    0.084769  4.941000e-17
    0.084794  4.941000e-17
    0.084818  4.946000e-17
    0.084843  4.942000e-17
    0.084868  4.949000e-17
    0.084892  4.943000e-17
    0.084917  4.945000e-17
    0.084943  4.942000e-17
    0.084968  4.944000e-17
    0.084992  4.946000e-17
    0.085017  4.945000e-17
    0.085043  4.952000e-17
    0.085067  4.951000e-17
    0.085092  4.956000e-17
    0.085117  4.954000e-17
    0.085142  4.962000e-17
    0.085167  4.952000e-17
    0.085192  4.959000e-17
    0.085216  4.953000e-17
    0.085242  4.955000e-17
    0.085266  4.952000e-17
    0.085292  4.955000e-17
    0.085316  4.948000e-17
    0.085342  4.952000e-17
    0.085366  4.943000e-17
    0.085392  4.936000e-17
    0.085416  4.937000e-17
    0.085442  4.940000e-17
    0.085466  4.935000e-17
    0.085491  4.940000e-17
    0.085515  4.942000e-17
    0.085541  4.941000e-17
    0.085566  4.946000e-17
    0.085591  4.942000e-17
    0.085615  4.948000e-17
    0.085641  4.943000e-17
    0.085666  4.944000e-17
    0.085691  4.949000e-17
    0.085716  4.945000e-17
    0.085741  4.948000e-17
    0.085766  4.947000e-17
    0.085790  4.948000e-17
    0.085815  4.949000e-17
    0.085840  4.949000e-17
    0.085865  4.949000e-17
    0.085890  4.943000e-17
    0.085915  4.949000e-17
    0.085940  4.946000e-17
    0.085965  4.943000e-17
    0.085989  4.950000e-17
    0.086015  4.956000e-17
    0.086039  4.959000e-17
    0.086066  4.948000e-17
    0.086089  4.955000e-17
    0.086114  4.947000e-17
    0.086139  4.957000e-17
    0.086165  4.945000e-17
    0.086188  4.943000e-17
    0.086214  4.946000e-17
    0.086239  4.955000e-17
    0.086265  4.946000e-17
    0.086288  4.946000e-17
    0.086314  4.940000e-17
    0.086338  4.950000e-17
    0.086364  4.952000e-17
    0.086388  4.950000e-17
    0.086413  4.954000e-17
    0.086438  4.963000e-17
    0.086463  4.956000e-17
    0.086487  4.967000e-17
    0.086513  4.965000e-17
    0.086538  4.967000e-17
    0.086563  4.980000e-17
    0.086588  4.974000e-17
    0.086613  4.981000e-17
    0.086638  4.978000e-17
    0.086663  4.986000e-17
    0.086686  4.992000e-17
    0.086712  4.995000e-17
    0.086737  5.000000e-17
    0.086763  4.998000e-17
    0.086787  5.003000e-17
    0.086812  5.001000e-17
    0.086837  4.994000e-17
    0.086862  4.999000e-17
    0.086887  4.994000e-17
    0.086912  4.996000e-17
    0.086937  4.994000e-17
    0.086963  4.988000e-17
    0.086986  4.981000e-17
    0.087011  4.984000e-17
    0.087036  4.984000e-17
    0.087062  4.982000e-17
    0.087086  4.979000e-17
    0.087111  4.982000e-17
    0.087137  4.981000e-17
    0.087161  4.982000e-17
    0.087186  4.989000e-17
    0.087211  4.990000e-17
    0.087237  4.990000e-17
    0.087262  4.989000e-17
    0.087285  4.994000e-17
    0.087310  4.990000e-17
    0.087336  5.002000e-17
    0.087361  5.003000e-17
    0.087385  5.002000e-17
    0.087410  5.005000e-17
    0.087436  5.009000e-17
    0.087460  5.000000e-17
    0.087485  5.003000e-17
    0.087510  5.004000e-17
    0.087536  5.012000e-17
    0.087560  5.012000e-17
    0.087585  5.017000e-17
    0.087609  5.025000e-17
    0.087635  5.012000e-17
    0.087659  5.011000e-17
    0.087685  5.018000e-17
    0.087709  5.017000e-17
    0.087735  5.018000e-17
    0.087759  5.017000e-17
    0.087785  5.006000e-17
    0.087808  5.002000e-17
    0.087835  4.997000e-17
    0.087858  4.997000e-17
    0.087884  4.991000e-17
    0.087908  4.980000e-17
    0.087934  4.971000e-17
    0.087958  4.978000e-17
    0.087983  4.979000e-17
    0.088008  4.971000e-17
    0.088034  4.959000e-17
    0.088058  4.959000e-17
    0.088084  4.965000e-17
    0.088107  4.965000e-17
    0.088132  4.968000e-17
    0.088157  4.962000e-17
    0.088182  4.968000e-17
    0.088207  4.969000e-17
    0.088233  4.972000e-17
    0.088257  4.977000e-17
    0.088282  4.977000e-17
    0.088307  4.989000e-17
    0.088332  4.984000e-17
    0.088357  4.991000e-17
    0.088382  5.004000e-17
    0.088407  4.998000e-17
    0.088431  4.995000e-17
    0.088456  4.997000e-17
    0.088480  4.986000e-17
    0.088506  5.043000e-17
    0.088531  4.997000e-17
    0.088556  4.997000e-17
    0.088580  5.007000e-17
    0.088606  4.990000e-17
    0.088631  4.994000e-17
    0.088656  5.002000e-17
    0.088681  5.003000e-17
    0.088705  4.994000e-17
    0.088729  4.992000e-17
    0.088755  4.995000e-17
    0.088779  5.004000e-17
    0.088805  5.006000e-17
    0.088829  4.994000e-17
    0.088855  5.002000e-17
    0.088879  4.985000e-17
    0.088905  4.972000e-17
    0.088929  4.980000e-17
    0.088954  4.979000e-17
    0.088978  4.960000e-17
    0.089004  4.962000e-17
    0.089028  4.962000e-17
    0.089054  4.970000e-17
    0.089078  4.970000e-17
    0.089103  4.972000e-17
    0.089128  4.975000e-17
    0.089154  4.971000e-17
    0.089178  4.991000e-17
    0.089203  4.993000e-17
    0.089227  5.004000e-17
    0.089253  5.017000e-17
    0.089277  5.019000e-17
    0.089302  5.024000e-17
    0.089327  5.036000e-17
    0.089352  5.031000e-17
    0.089376  5.028000e-17
    0.089403  5.030000e-17
    0.089426  5.036000e-17
    0.089453  5.041000e-17
    0.089477  5.053000e-17
    0.089501  5.045000e-17
    0.089526  5.046000e-17
    0.089551  5.048000e-17
    0.089576  5.056000e-17
    0.089601  5.051000e-17
    0.089626  5.063000e-17
    0.089651  5.070000e-17
    0.089676  5.079000e-17
    0.089701  5.081000e-17
    0.089726  5.075000e-17
    0.089750  5.087000e-17
    0.089775  5.090000e-17
    0.089800  5.089000e-17
    0.089825  5.092000e-17
    0.089850  5.085000e-17
    0.089875  5.087000e-17
    0.089899  5.090000e-17
    0.089925  5.073000e-17
    0.089950  5.080000e-17
    0.089975  5.068000e-17
    0.089999  5.067000e-17
    0.090026  5.055000e-17
    0.090051  5.036000e-17
    0.090076  5.071000e-17
    0.090100  5.060000e-17
    0.090126  5.090000e-17
    0.090150  5.074000e-17
    0.090176  5.082000e-17
    0.090200  5.109000e-17
    0.090226  5.092000e-17
    0.090250  5.112000e-17
    0.090274  5.145000e-17
    0.090299  5.119000e-17
    0.090325  5.137000e-17
    0.090349  5.138000e-17
    0.090374  5.160000e-17
    0.090399  5.164000e-17
    0.090425  5.154000e-17
    0.090449  5.175000e-17
    0.090474  5.166000e-17
    0.090499  5.174000e-17
    0.090524  5.169000e-17
    0.090549  5.181000e-17
    0.090574  5.179000e-17
    0.090598  5.180000e-17
    0.090624  5.167000e-17
    0.090649  5.188000e-17
    0.090673  5.182000e-17
    0.090699  5.168000e-17
    0.090724  5.174000e-17
    0.090749  5.171000e-17
    0.090772  5.161000e-17
    0.090798  5.163000e-17
    0.090823  5.162000e-17
    0.090848  5.155000e-17
    0.090872  5.174000e-17
    0.090898  5.161000e-17
    0.090923  5.161000e-17
    0.090948  5.151000e-17
    0.090972  5.148000e-17
    0.090998  5.166000e-17
    0.091021  5.125000e-17
    0.091047  5.145000e-17
    0.091071  5.132000e-17
    0.091097  5.108000e-17
    0.091122  5.116000e-17
    0.091147  5.133000e-17
    0.091172  5.122000e-17
    0.091197  5.160000e-17
    0.091221  5.138000e-17
    0.091247  5.181000e-17
    0.091270  5.197000e-17
    0.091296  5.195000e-17
    0.091320  5.208000e-17
    0.091347  5.168000e-17
    0.091370  5.189000e-17
    0.091396  5.213000e-17
    0.091420  5.217000e-17
    0.091446  5.248000e-17
    0.091470  5.227000e-17
    0.091495  5.268000e-17
    0.091520  5.206000e-17
    0.091545  5.222000e-17
    0.091569  5.212000e-17
    0.091595  5.218000e-17
    0.091620  5.219000e-17
    0.091645  5.246000e-17
    0.091669  5.252000e-17
    0.091695  5.237000e-17
    0.091720  5.274000e-17
    0.091744  5.260000e-17
    0.091769  5.254000e-17
    0.091794  5.209000e-17
    0.091819  5.259000e-17
    0.091845  5.274000e-17
    0.091869  5.238000e-17
    0.091894  5.261000e-17
    0.091919  5.241000e-17
    0.091944  5.246000e-17
    0.091968  5.237000e-17
    0.091993  5.263000e-17
    0.092018  5.237000e-17
    0.092043  5.252000e-17
    0.092068  5.260000e-17
    0.092094  5.239000e-17
    0.092118  5.238000e-17
    0.092143  5.236000e-17
    0.092168  5.221000e-17
    0.092192  5.224000e-17
    0.092217  5.214000e-17
    0.092242  5.225000e-17
    0.092267  5.217000e-17
    0.092292  5.248000e-17
    0.092317  5.237000e-17
    0.092342  5.243000e-17
    0.092367  5.254000e-17
    0.092392  5.212000e-17
    0.092417  5.228000e-17
    0.092441  5.210000e-17
    0.092466  5.219000e-17
    0.092491  5.214000e-17
    0.092516  5.248000e-17
    0.092541  5.226000e-17
    0.092566  5.230000e-17
    0.092591  5.251000e-17
    0.092617  5.214000e-17
    0.092641  5.214000e-17
    0.092665  5.226000e-17
    0.092690  5.210000e-17
    0.092716  5.228000e-17
    0.092740  5.220000e-17
    0.092765  5.168000e-17
    0.092790  5.216000e-17
    0.092816  5.202000e-17
    0.092840  5.183000e-17
    0.092866  5.171000e-17
    0.092888  5.164000e-17
    0.092915  5.199000e-17
    0.092939  5.183000e-17
    0.092964  5.185000e-17
    0.092988  5.182000e-17
    0.093015  5.157000e-17
    0.093038  5.128000e-17
    0.093065  5.125000e-17
    0.093088  5.112000e-17
    0.093114  5.093000e-17
    0.093137  5.084000e-17
    0.093164  5.078000e-17
    0.093187  5.061000e-17
    0.093214  5.045000e-17
    0.093237  5.057000e-17
    0.093263  5.071000e-17
    0.093287  5.023000e-17
    0.093313  5.026000e-17
    0.093336  5.011000e-17
    0.093362  5.008000e-17
    0.093386  5.012000e-17
    0.093413  4.997000e-17
    0.093436  4.986000e-17
    0.093462  5.024000e-17
    0.093486  4.991000e-17
    0.093512  4.997000e-17
    0.093535  5.004000e-17
    0.093561  5.020000e-17
    0.093585  5.050000e-17
    0.093611  5.043000e-17
    0.093635  5.012000e-17
    0.093661  5.009000e-17
    0.093685  5.013000e-17
    0.093712  4.992000e-17
    0.093735  4.974000e-17
    0.093760  4.992000e-17
    0.093785  4.977000e-17
    0.093810  5.006000e-17
    0.093834  4.966000e-17
    0.093859  4.998000e-17
    0.093884  4.978000e-17
    0.093910  4.951000e-17
    0.093934  4.927000e-17
    0.093958  4.915000e-17
    0.093983  4.915000e-17
    0.094009  4.879000e-17
    0.094033  4.860000e-17
    0.094058  4.903000e-17
    0.094083  4.901000e-17
    0.094109  4.882000e-17
    0.094133  4.891000e-17
    0.094158  4.868000e-17
    0.094182  4.889000e-17
    0.094207  4.872000e-17
    0.094232  4.878000e-17
    0.094257  4.902000e-17
    0.094281  4.868000e-17
    0.094307  4.907000e-17
    0.094332  4.880000e-17
    0.094357  4.883000e-17
    0.094380  4.872000e-17
    0.094406  4.848000e-17
    0.094430  4.822000e-17
    0.094455  4.832000e-17
    0.094480  4.771000e-17
    0.094506  4.790000e-17
    0.094530  4.809000e-17
    0.094556  4.801000e-17
    0.094579  4.786000e-17
    0.094605  4.804000e-17
    0.094629  4.795000e-17
    0.094655  4.796000e-17
    0.094679  4.783000e-17
    0.094705  4.780000e-17
    0.094729  4.816000e-17
    0.094754  4.829000e-17
    0.094778  4.801000e-17
    0.094804  4.814000e-17
    0.094828  4.826000e-17
    0.094854  4.805000e-17
    0.094878  4.790000e-17
    0.094904  4.805000e-17
    0.094928  4.747000e-17
    0.094954  4.761000e-17
    0.094977  4.766000e-17
    0.095003  4.713000e-17
    0.095027  4.734000e-17
    0.095053  4.723000e-17
    0.095077  4.688000e-17
    0.095103  4.735000e-17
    0.095127  4.721000e-17
    0.095152  4.701000e-17
    0.095176  4.710000e-17
    0.095202  4.684000e-17
    0.095226  4.674000e-17
    0.095251  4.712000e-17
    0.095276  4.696000e-17
    0.095301  4.699000e-17
    0.095327  4.703000e-17
    0.095351  4.710000e-17
    0.095375  4.700000e-17
    0.095400  4.720000e-17
    0.095425  4.726000e-17
    0.095449  4.730000e-17
    0.095475  4.718000e-17
    0.095500  4.743000e-17
    0.095526  4.729000e-17
    0.095550  4.781000e-17
    0.095574  4.766000e-17
    0.095599  4.746000e-17
    0.095625  4.740000e-17
    0.095649  4.725000e-17
    0.095675  4.687000e-17
    0.095699  4.685000e-17
    0.095725  4.652000e-17
    0.095749  4.636000e-17
    0.095774  4.645000e-17
    0.095798  4.682000e-17
    0.095824  4.698000e-17
    0.095848  4.697000e-17
    0.095874  4.704000e-17
    0.095898  4.714000e-17
    0.095924  4.702000e-17
    0.095948  4.667000e-17
    0.095973  4.676000e-17
    0.095997  4.704000e-17
    0.096023  4.706000e-17
    0.096047  4.721000e-17
    0.096073  4.664000e-17
    0.096098  4.652000e-17
    0.096123  4.627000e-17
    0.096146  4.607000e-17
    0.096172  4.602000e-17
    0.096197  4.589000e-17
    0.096222  4.584000e-17
    0.096246  4.557000e-17
    0.096272  4.557000e-17
    0.096297  4.525000e-17
    0.096322  4.542000e-17
    0.096345  4.517000e-17
    0.096371  4.511000e-17
    0.096396  4.534000e-17
    0.096421  4.557000e-17
    0.096445  4.526000e-17
    0.096471  4.536000e-17
    0.096496  4.531000e-17
    0.096520  4.529000e-17
    0.096544  4.548000e-17
    0.096570  4.577000e-17
    0.096595  4.589000e-17
    0.096620  4.605000e-17
    0.096644  4.604000e-17
    0.096670  4.592000e-17
    0.096695  4.591000e-17
    0.096719  4.570000e-17
    0.096743  4.586000e-17
    0.096769  4.591000e-17
    0.096794  4.618000e-17
    0.096819  4.591000e-17
    0.096843  4.613000e-17
    0.096869  4.576000e-17
    0.096893  4.564000e-17
    0.096918  4.515000e-17
    0.096942  4.510000e-17
    0.096968  4.503000e-17
    0.096993  4.463000e-17
    0.097019  4.463000e-17
    0.097042  4.465000e-17
    0.097067  4.466000e-17
    0.097092  4.439000e-17
    0.097117  4.436000e-17
    0.097141  4.400000e-17
    0.097167  4.430000e-17
    0.097192  4.450000e-17
    0.097218  4.448000e-17
    0.097241  4.455000e-17
    0.097267  4.464000e-17
    0.097291  4.428000e-17
    0.097316  4.425000e-17
    0.097340  4.416000e-17
    0.097366  4.419000e-17
    0.097391  4.383000e-17
    0.097416  4.410000e-17
    0.097439  4.453000e-17
    0.097465  4.431000e-17
    0.097490  4.405000e-17
    0.097515  4.402000e-17
    0.097539  4.419000e-17
    0.097565  4.400000e-17
    0.097590  4.353000e-17
    0.097614  4.369000e-17
    0.097639  4.325000e-17
    0.097664  4.333000e-17
    0.097689  4.326000e-17
    0.097714  4.296000e-17
    0.097739  4.267000e-17
    0.097764  4.235000e-17
    0.097788  4.240000e-17
    0.097813  4.229000e-17
    0.097838  4.268000e-17
    0.097863  4.245000e-17
    0.097889  4.258000e-17
    0.097913  4.294000e-17
    0.097938  4.312000e-17
    0.097961  4.343000e-17
    0.097988  4.376000e-17
    0.098012  4.412000e-17
    0.098037  4.441000e-17
    0.098061  4.466000e-17
    0.098088  4.456000e-17
    0.098111  4.464000e-17
    0.098136  4.488000e-17
    0.098160  4.476000e-17
    0.098186  4.427000e-17
    0.098210  4.384000e-17
    0.098236  4.372000e-17
    0.098260  4.329000e-17
    0.098285  4.290000e-17
    0.098309  4.278000e-17
    0.098335  4.215000e-17
    0.098359  4.209000e-17
    0.098385  4.212000e-17
    0.098409  4.173000e-17
    0.098435  4.131000e-17
    0.098458  4.147000e-17
    0.098484  4.147000e-17
    0.098508  4.111000e-17
    0.098534  4.111000e-17
    0.098558  4.112000e-17
    0.098584  4.099000e-17
    0.098608  4.069000e-17
    0.098633  4.091000e-17
    0.098656  4.126000e-17
    0.098683  4.090000e-17
    0.098706  4.147000e-17
    0.098733  4.138000e-17
    0.098757  4.163000e-17
    0.098783  4.157000e-17
    0.098806  4.140000e-17
    0.098831  4.130000e-17
    0.098856  4.158000e-17
    0.098882  4.175000e-17
    0.098906  4.160000e-17
    0.098932  4.174000e-17
    0.098955  4.169000e-17
    0.098981  4.167000e-17
    0.099004  4.202000e-17
    0.099030  4.199000e-17
    0.099054  4.176000e-17
    0.099081  4.172000e-17
    0.099104  4.151000e-17
    0.099129  4.153000e-17
    0.099153  4.112000e-17
    0.099179  4.080000e-17
    0.099203  4.075000e-17
    0.099229  4.058000e-17
    0.099253  4.014000e-17
    0.099278  3.955000e-17
    0.099302  3.953000e-17
    0.099328  3.942000e-17
    0.099352  3.981000e-17
    0.099378  3.942000e-17
    0.099402  3.942000e-17
    0.099428  3.921000e-17
    0.099451  3.965000e-17
    0.099477  4.007000e-17
    0.099501  3.961000e-17
    0.099526  4.011000e-17
    0.099551  3.926000e-17
    0.099577  3.991000e-17
    0.099600  3.968000e-17
    0.099626  3.977000e-17
    0.099650  3.967000e-17
    0.099676  3.961000e-17
    0.099700  3.956000e-17
    0.099725  3.934000e-17
    0.099749  3.937000e-17
    0.099775  3.863000e-17
    0.099800  3.893000e-17
    0.099824  3.914000e-17
    0.099849  3.857000e-17
    0.099875  3.848000e-17
    0.099899  3.842000e-17
    0.099923  3.806000e-17
    0.099948  3.768000e-17
    0.099973  3.786000e-17
    0.099998  3.807000e-17
    0.100023  3.785000e-17
    0.100048  3.819000e-17
    0.100072  3.815000e-17
    0.100097  3.803000e-17
    0.100122  3.755000e-17
    0.100147  3.751000e-17
    0.100172  3.761000e-17
    0.100197  3.717000e-17
    0.100220  3.750000e-17
    0.100246  3.692000e-17
    0.100271  3.700000e-17
    0.100296  3.693000e-17
    0.100320  3.708000e-17
    0.100346  3.670000e-17
    0.100370  3.713000e-17
    0.100396  3.703000e-17
    0.100419  3.682000e-17
    0.100445  3.725000e-17
    0.100470  3.746000e-17
    0.100496  3.709000e-17
    0.100520  3.760000e-17
    0.100544  3.834000e-17
    0.100569  3.788000e-17
    0.100594  3.823000e-17
    0.100618  3.804000e-17
    0.100644  3.747000e-17
    0.100669  3.762000e-17
    0.100694  3.807000e-17
    0.100717  3.716000e-17
    0.100743  3.718000e-17
    0.100768  3.724000e-17
    0.100793  3.680000e-17
    0.100817  3.721000e-17
    0.100842  3.690000e-17
    0.100867  3.642000e-17
    0.100892  3.655000e-17
    0.100916  3.602000e-17
    0.100942  3.590000e-17
    0.100967  3.556000e-17
    0.100991  3.549000e-17
    0.101016  3.531000e-17
    0.101041  3.499000e-17
    0.101066  3.486000e-17
    0.101091  3.470000e-17
    0.101116  3.497000e-17
    0.101140  3.479000e-17
    0.101166  3.468000e-17
    0.101190  3.469000e-17
    0.101215  3.512000e-17
    0.101240  3.479000e-17
    0.101265  3.479000e-17
    0.101289  3.477000e-17
    0.101314  3.483000e-17
    0.101339  3.500000e-17
    0.101365  3.459000e-17
    0.101389  3.432000e-17
    0.101413  3.475000e-17
    0.101438  3.471000e-17
    0.101463  3.442000e-17
    0.101488  3.414000e-17
    0.101513  3.464000e-17
    0.101538  3.517000e-17
    0.101563  3.502000e-17
    0.101587  3.526000e-17
    0.101612  3.515000e-17
    0.101637  3.550000e-17
    0.101663  3.554000e-17
    0.101687  3.517000e-17
    0.101711  3.516000e-17
    0.101737  3.497000e-17
    0.101762  3.484000e-17
    0.101787  3.463000e-17
    0.101811  3.468000e-17
    0.101837  3.437000e-17
    0.101861  3.454000e-17
    0.101886  3.417000e-17
    0.101910  3.357000e-17
    0.101935  3.410000e-17
    0.101961  3.402000e-17
    0.101985  3.392000e-17
    0.102009  3.400000e-17
    0.102035  3.408000e-17
    0.102060  3.423000e-17
    0.102085  3.426000e-17
    0.102109  3.452000e-17
    0.102133  3.403000e-17
    0.102158  3.366000e-17
    0.102184  3.411000e-17
    0.102208  3.399000e-17
    0.102234  3.373000e-17
    0.102259  3.302000e-17
    0.102283  3.325000e-17
    0.102306  3.365000e-17
    0.102333  3.315000e-17
    0.102357  3.316000e-17
    0.102383  3.312000e-17
    0.102406  3.359000e-17
    0.102432  3.271000e-17
    0.102456  3.357000e-17
    0.102482  3.305000e-17
    0.102506  3.318000e-17
    0.102532  3.345000e-17
    0.102555  3.346000e-17
    0.102581  3.375000e-17
    0.102605  3.349000e-17
    0.102631  3.353000e-17
    0.102655  3.391000e-17
    0.102680  3.348000e-17
    0.102703  3.345000e-17
    0.102730  3.372000e-17
    0.102755  3.328000e-17
    0.102780  3.297000e-17
    0.102804  3.310000e-17
    0.102829  3.295000e-17
    0.102853  3.323000e-17
    0.102878  3.315000e-17
    0.102903  3.286000e-17
    0.102929  3.356000e-17
    0.102953  3.277000e-17
    0.102977  3.213000e-17
    0.103002  3.228000e-17
    0.103027  3.217000e-17
    0.103052  3.256000e-17
    0.103077  3.216000e-17
    0.103101  3.190000e-17
    0.103126  3.220000e-17
    0.103152  3.265000e-17
    0.103176  3.300000e-17
    0.103201  3.302000e-17
    0.103225  3.364000e-17
    0.103251  3.384000e-17
    0.103275  3.399000e-17
    0.103300  3.400000e-17
    0.103324  3.375000e-17
    0.103350  3.382000e-17
    0.103373  3.380000e-17
    0.103399  3.310000e-17
    0.103423  3.394000e-17
    0.103450  3.305000e-17
    0.103473  3.321000e-17
    0.103498  3.320000e-17
    0.103522  3.292000e-17
    0.104657  3.128000e-17
    0.104678  3.140000e-17
    0.104697  3.166000e-17
    0.104717  3.181000e-17
    0.104737  3.180000e-17
    0.104756  3.202000e-17
    0.104776  3.208000e-17
    0.104796  3.220000e-17
    0.104817  3.220000e-17
    0.104836  3.237000e-17
    0.104856  3.221000e-17
    0.104876  3.225000e-17
    0.104895  3.220000e-17
    0.104916  3.209000e-17
    0.104935  3.206000e-17
    0.104956  3.199000e-17
    0.104975  3.186000e-17
    0.104994  3.182000e-17
    0.105015  3.169000e-17
    0.105034  3.176000e-17
    0.105055  3.168000e-17
    0.105074  3.164000e-17
    0.105094  3.163000e-17
    0.105115  3.154000e-17
    0.105133  3.164000e-17
    0.105153  3.164000e-17
    0.105173  3.168000e-17
    0.105193  3.187000e-17
    0.105214  3.206000e-17
    0.105233  3.233000e-17
    0.105253  3.238000e-17
    0.105272  3.244000e-17
    0.105292  3.259000e-17
    0.105312  3.271000e-17
    0.105332  3.272000e-17
    0.105353  3.280000e-17
    0.105371  3.283000e-17
    0.105391  3.282000e-17
    0.105411  3.288000e-17
    0.105431  3.290000e-17
    0.105452  3.284000e-17
    0.105471  3.298000e-17
    0.105490  3.282000e-17
    0.105510  3.262000e-17
    0.105529  3.257000e-17
    0.105551  3.250000e-17
    0.105570  3.243000e-17
    0.105590  3.225000e-17
    0.105609  3.203000e-17
    0.105629  3.187000e-17
    0.105650  3.173000e-17
    0.105669  3.156000e-17
    0.105689  3.143000e-17
    0.105709  3.136000e-17
    0.105728  3.141000e-17
    0.105749  3.142000e-17
    0.105768  3.143000e-17
    0.105789  3.126000e-17
    0.105808  3.118000e-17
    0.105828  3.117000e-17
    0.105848  3.115000e-17
    0.105867  3.127000e-17
    0.105888  3.138000e-17
    0.105907  3.151000e-17
    0.105927  3.155000e-17
    0.105948  3.178000e-17
    0.105966  3.189000e-17
    0.105987  3.197000e-17
    0.106006  3.207000e-17
    0.106026  3.215000e-17
    0.106047  3.217000e-17
    0.106065  3.211000e-17
    0.106086  3.215000e-17
    0.106105  3.197000e-17
    0.106125  3.200000e-17
    0.106145  3.195000e-17
    0.106165  3.195000e-17
    0.106186  3.182000e-17
    0.106204  3.193000e-17
    0.106224  3.203000e-17
    0.106245  3.187000e-17
    0.106264  3.176000e-17
    0.106285  3.167000e-17
    0.106303  3.167000e-17
    0.106324  3.171000e-17
    0.106343  3.163000e-17
    0.106362  3.164000e-17
    0.106384  3.163000e-17
    0.106403  3.169000e-17
    0.106423  3.164000e-17
    0.106443  3.167000e-17
    0.106462  3.162000e-17
    0.106483  3.163000e-17
    0.106502  3.163000e-17
    0.106522  3.156000e-17
    0.106542  3.161000e-17
    0.106561  3.157000e-17
    0.106582  3.143000e-17
    0.106601  3.137000e-17
    0.106621  3.119000e-17
    0.106642  3.105000e-17
    0.106660  3.106000e-17
    0.106681  3.103000e-17
    0.106700  3.096000e-17
    0.106720  3.081000e-17
    0.106741  3.078000e-17
    0.106759  3.070000e-17
    0.106780  3.064000e-17
    0.106799  3.057000e-17
    0.106819  3.052000e-17
    0.106840  3.064000e-17
    0.106859  3.058000e-17
    0.106879  3.051000e-17
    0.106898  3.049000e-17
    0.106918  3.048000e-17
    0.106939  3.056000e-17
    0.106958  3.056000e-17
    0.106979  3.063000e-17
    0.106997  3.068000e-17
    0.107017  3.078000e-17
    0.107038  3.083000e-17
    0.107057  3.082000e-17
    0.107078  3.086000e-17
    0.107097  3.094000e-17
    0.107116  3.094000e-17
    0.107137  3.099000e-17
    0.107155  3.098000e-17
    0.107177  3.098000e-17
    0.107197  3.095000e-17
    0.107215  3.096000e-17
    0.107236  3.095000e-17
    0.107255  3.082000e-17
    0.107276  3.083000e-17
    0.107295  3.071000e-17
    0.107315  3.064000e-17
    0.107335  3.059000e-17
    0.107354  3.050000e-17
    0.107375  3.047000e-17
    0.107395  3.047000e-17
    0.107414  3.047000e-17
    0.107434  3.035000e-17
    0.107453  3.049000e-17
    0.107473  3.050000e-17
    0.107494  3.058000e-17
    0.107513  3.054000e-17
    0.107534  3.062000e-17
    0.107552  3.074000e-17
    0.107572  3.070000e-17
    0.107593  3.063000e-17
    0.107611  3.060000e-17
    0.107633  3.056000e-17
    0.107651  3.053000e-17
    0.107671  3.036000e-17
    0.107691  3.027000e-17
    0.107711  3.011000e-17
    0.107732  3.017000e-17
    0.107751  3.010000e-17
    0.107769  2.999000e-17
    0.107791  2.984000e-17
    0.107810  2.975000e-17
    0.107830  2.958000e-17
    0.107851  2.947000e-17
    0.107869  2.917000e-17
    0.107890  2.891000e-17
    0.107909  2.866000e-17
    0.107929  2.852000e-17
    0.107950  2.833000e-17
    0.107969  2.823000e-17
    0.107989  2.812000e-17
    0.108008  2.810000e-17
    0.108028  2.804000e-17
    0.108049  2.785000e-17
    0.108068  2.778000e-17
    0.108087  2.778000e-17
    0.108107  2.794000e-17
    0.108127  2.800000e-17
    0.108148  2.818000e-17
    0.108166  2.835000e-17
    0.108186  2.857000e-17
    0.108206  2.873000e-17
    0.108225  2.905000e-17
    0.108247  2.918000e-17
    0.108265  2.924000e-17
    0.108286  2.945000e-17
    0.108305  2.963000e-17
    0.108324  2.968000e-17
    0.108345  2.979000e-17
    0.108364  2.981000e-17
    0.108385  2.973000e-17
    0.108404  2.979000e-17
    0.108423  2.961000e-17
    0.108444  2.957000e-17
    0.108463  2.948000e-17
    0.108484  2.940000e-17
    0.108503  2.932000e-17
    0.108522  2.926000e-17
    0.108543  2.911000e-17
    0.108563  2.891000e-17
    0.108582  2.886000e-17
    0.108603  2.866000e-17
    0.108621  2.855000e-17
    0.108642  2.852000e-17
    0.108662  2.846000e-17
    0.108681  2.840000e-17
    0.108702  2.832000e-17
    0.108720  2.820000e-17
    0.108741  2.813000e-17
    0.108761  2.810000e-17
    0.108780  2.807000e-17
    0.108801  2.800000e-17
    0.108818  2.803000e-17
    0.108840  2.801000e-17
    0.108859  2.800000e-17
    0.108879  2.795000e-17
    0.108900  2.792000e-17
    0.108918  2.781000e-17
    0.108939  2.777000e-17
    0.108958  2.770000e-17
    0.108978  2.771000e-17
    0.108999  2.758000e-17
    0.109018  2.751000e-17
    0.109038  2.749000e-17
    0.109057  2.741000e-17
    0.109077  2.738000e-17
    0.109098  2.728000e-17
    0.109117  2.715000e-17
    0.109136  2.696000e-17
    0.109156  2.672000e-17
    0.109176  2.647000e-17
    0.109196  2.618000e-17
    0.109215  2.589000e-17
    0.109235  2.552000e-17
    0.109255  2.532000e-17
    0.109275  2.493000e-17
    0.109295  2.472000e-17
    0.109314  2.448000e-17
    0.109335  2.427000e-17
    0.109353  2.416000e-17
    0.109374  2.400000e-17
    0.109394  2.395000e-17
    0.109413  2.387000e-17
    0.109433  2.388000e-17
    0.109452  2.391000e-17
    0.109473  2.395000e-17
    0.109493  2.403000e-17
    0.109512  2.418000e-17
    0.109532  2.430000e-17
    0.109551  2.449000e-17
    0.109572  2.472000e-17
    0.109591  2.486000e-17
    0.109611  2.505000e-17
    0.109631  2.517000e-17
    0.109650  2.533000e-17
    0.109671  2.547000e-17
    0.109690  2.558000e-17
    0.109711  2.555000e-17
    0.109730  2.563000e-17
    0.109749  2.567000e-17
    0.109770  2.561000e-17
    0.109789  2.566000e-17
    0.109810  2.560000e-17
    0.109828  2.556000e-17
    0.109848  2.548000e-17
    0.109869  2.514000e-17
    0.109888  2.508000e-17
    0.109909  2.495000e-17
    0.109927  2.490000e-17
    0.109947  2.475000e-17
    0.109968  2.469000e-17
    0.109987  2.463000e-17
    0.110008  2.450000e-17
    0.110026  2.443000e-17
    0.110047  2.427000e-17
    0.110067  2.427000e-17
    0.110086  2.418000e-17
    0.110107  2.405000e-17
    0.110125  2.399000e-17
    0.110145  2.387000e-17
    0.110165  2.386000e-17
    0.110185  2.383000e-17
    0.110206  2.368000e-17
    0.110224  2.371000e-17
    0.110245  2.363000e-17
    0.110264  2.357000e-17
    0.110284  2.355000e-17
    0.110305  2.353000e-17
    0.110323  2.350000e-17
    0.110344  2.346000e-17
    0.110363  2.335000e-17
    0.110384  2.327000e-17
    0.110404  2.317000e-17
    0.110422  2.301000e-17
    0.110443  2.282000e-17
    0.110462  2.266000e-17
    0.110483  2.252000e-17
    0.110503  2.232000e-17
    0.110521  2.212000e-17
    0.110542  2.197000e-17
    0.110561  2.185000e-17
    0.110582  2.168000e-17
    0.110602  2.151000e-17
    0.110620  2.142000e-17
    0.110641  2.121000e-17
    0.110660  2.111000e-17
    0.110681  2.103000e-17
    0.110700  2.093000e-17
    0.110719  2.084000e-17
    0.110740  2.076000e-17
    0.110759  2.066000e-17
    0.110780  2.066000e-17
    0.110799  2.059000e-17
    0.110818  2.056000e-17
    0.110839  2.055000e-17
    0.110858  2.056000e-17
    0.110879  2.050000e-17
    0.110898  2.045000e-17
    0.110917  2.047000e-17
    0.110938  2.040000e-17
    0.110957  2.040000e-17
    0.110978  2.037000e-17
    0.110996  2.037000e-17
    0.111016  2.036000e-17
    0.111037  2.038000e-17
    0.111056  2.039000e-17
    0.111077  2.043000e-17
    0.111095  2.046000e-17
    0.111115  2.048000e-17
    0.111136  2.052000e-17
    0.111155  2.051000e-17
    0.111176  2.059000e-17
    0.111194  2.061000e-17
    0.111214  2.063000e-17
    0.111235  2.065000e-17
    0.111254  2.064000e-17
    0.111275  2.065000e-17
    0.111293  2.065000e-17
    0.111313  2.067000e-17
    0.111334  2.064000e-17
    0.111353  2.066000e-17
    0.111373  2.060000e-17
    0.111392  2.057000e-17
    0.111412  2.051000e-17
    0.111433  2.047000e-17
    0.111452  2.040000e-17
    0.111472  2.034000e-17
    0.111491  2.027000e-17
    0.111511  2.024000e-17
    0.111532  2.015000e-17
    0.111551  2.007000e-17
    0.111571  1.997000e-17
    0.111591  1.995000e-17
    0.111610  1.984000e-17
    0.111631  1.974000e-17
    0.111649  1.963000e-17
    0.111670  1.955000e-17
    0.111690  1.950000e-17
    0.111709  1.937000e-17
    0.111730  1.935000e-17
    0.111748  1.927000e-17
    0.111769  1.921000e-17
    0.111789  1.919000e-17
    0.111808  1.912000e-17
    0.111829  1.903000e-17
    0.111847  1.899000e-17
    0.111868  1.891000e-17
    0.111888  1.880000e-17
    0.111907  1.876000e-17
    0.111927  1.870000e-17
    0.111946  1.870000e-17
    0.111966  1.861000e-17
    0.111987  1.857000e-17
    0.112006  1.850000e-17
    0.112026  1.845000e-17
    0.112045  1.844000e-17
    0.112066  1.841000e-17
    0.112086  1.833000e-17
    0.112105  1.834000e-17
    0.112125  1.829000e-17
    0.112144  1.832000e-17
    0.112164  1.829000e-17
    0.112185  1.827000e-17
    0.112203  1.825000e-17
    0.112224  1.822000e-17
    0.112243  1.818000e-17
    0.112263  1.820000e-17
    0.112284  1.818000e-17
    0.112302  1.814000e-17
    0.112323  1.818000e-17
    0.112342  1.812000e-17
    0.112362  1.812000e-17
    0.112382  1.805000e-17
    0.112401  1.802000e-17
    0.112422  1.801000e-17
    0.112441  1.793000e-17
    0.112461  1.792000e-17
    0.112481  1.788000e-17
    0.112500  1.788000e-17
    0.112520  1.790000e-17
    0.112540  1.786000e-17
    0.112559  1.784000e-17
    0.112580  1.788000e-17
    0.112599  1.785000e-17
    0.112619  1.788000e-17
    0.112639  1.790000e-17
    0.112658  1.790000e-17
    0.112678  1.787000e-17
    0.112698  1.792000e-17
    0.112718  1.793000e-17
    0.112737  1.793000e-17
    0.112757  1.794000e-17
    0.112778  1.798000e-17
    0.112797  1.803000e-17
    0.112817  1.803000e-17
    0.112837  1.805000e-17
    0.112855  1.803000e-17
    0.112876  1.805000e-17
    0.112896  1.805000e-17
    0.112915  1.802000e-17
    0.112936  1.802000e-17
    0.112955  1.805000e-17
    0.112975  1.807000e-17
    0.112995  1.807000e-17
    0.113014  1.808000e-17
    0.113035  1.806000e-17
    0.113053  1.810000e-17
    0.113074  1.809000e-17
    0.113093  1.803000e-17
    0.113112  1.802000e-17
    0.113134  1.798000e-17
    0.113152  1.802000e-17
    0.113173  1.797000e-17
    0.113192  1.796000e-17
    0.113211  1.796000e-17
    0.113232  1.799000e-17
    0.113251  1.793000e-17
    0.113271  1.788000e-17
    0.113291  1.790000e-17
    0.113310  1.785000e-17
    0.113331  1.786000e-17
    0.113351  1.777000e-17
    0.113370  1.779000e-17
    0.113390  1.774000e-17
    0.113409  1.779000e-17
    0.113431  1.779000e-17
    0.113448  1.781000e-17
    0.113469  1.781000e-17
    0.113489  1.782000e-17
    0.113508  1.783000e-17
    0.113528  1.784000e-17
    0.113547  1.782000e-17
    0.113568  1.781000e-17
    0.113588  1.784000e-17
    0.113607  1.780000e-17
    0.113627  1.782000e-17
    0.113646  1.785000e-17
    0.113666  1.785000e-17
    0.113687  1.787000e-17
    0.113705  1.788000e-17
    0.113726  1.787000e-17
    0.113745  1.790000e-17
    0.113765  1.791000e-17
    0.113785  1.797000e-17
    0.113804  1.799000e-17
    0.113824  1.801000e-17
    0.113844  1.805000e-17
    0.113864  1.804000e-17
    0.113884  1.801000e-17
    0.113902  1.805000e-17
    0.113924  1.805000e-17
    0.113943  1.807000e-17
    0.113962  1.803000e-17
    0.113983  1.801000e-17
    0.114002  1.800000e-17
    0.114023  1.797000e-17
    0.114041  1.800000e-17
    0.114061  1.801000e-17
    0.114081  1.799000e-17
    0.114100  1.801000e-17
    0.114122  1.802000e-17
    0.114140  1.805000e-17
    0.114160  1.808000e-17
    0.114180  1.811000e-17
    0.114200  1.817000e-17
    0.114219  1.825000e-17
    0.114239  1.828000e-17
    0.114259  1.833000e-17
    0.114279  1.832000e-17
    0.114298  1.838000e-17
    0.114318  1.840000e-17
    0.114337  1.843000e-17
    0.114358  1.845000e-17
    0.114377  1.845000e-17
    0.114396  1.850000e-17
    0.114417  1.851000e-17
    0.114436  1.854000e-17
    0.114457  1.854000e-17
    0.114475  1.852000e-17
    0.114495  1.852000e-17
    0.114516  1.857000e-17
    0.114535  1.855000e-17
    0.114555  1.854000e-17
    0.114575  1.853000e-17
    0.114594  1.857000e-17
    0.114615  1.856000e-17
    0.114633  1.853000e-17
    0.114654  1.855000e-17
    0.114673  1.853000e-17
    0.114693  1.854000e-17
    0.114713  1.857000e-17
    0.114732  1.856000e-17
    0.114753  1.862000e-17
    0.114772  1.863000e-17
    0.114792  1.865000e-17
    0.114811  1.871000e-17
    0.114831  1.869000e-17
    0.114852  1.872000e-17
    0.114871  1.874000e-17
    0.114891  1.870000e-17
    0.114910  1.869000e-17
    0.114930  1.873000e-17
    0.114951  1.874000e-17
    0.114969  1.877000e-17
    0.114990  1.877000e-17
    0.115009  1.882000e-17
    0.115029  1.885000e-17
    0.115049  1.885000e-17
    0.115068  1.891000e-17
    0.115089  1.885000e-17
    0.115108  1.889000e-17
    0.115127  1.890000e-17
    0.115147  1.894000e-17
    0.115167  1.892000e-17
    0.115188  1.895000e-17
    0.115206  1.892000e-17
    0.115227  1.895000e-17
    0.115246  1.898000e-17
    0.115266  1.896000e-17
    0.115286  1.898000e-17
    0.115305  1.893000e-17
    0.115326  1.893000e-17
    0.115345  1.899000e-17
    0.115365  1.901000e-17
    0.115385  1.896000e-17
    0.115404  1.902000e-17
    0.115425  1.903000e-17
    0.115444  1.904000e-17
    0.115463  1.904000e-17
    0.115484  1.908000e-17
    0.115503  1.908000e-17
    0.115524  1.908000e-17
    0.115542  1.914000e-17
    0.115562  1.915000e-17
    0.115583  1.918000e-17
    0.115602  1.925000e-17
    0.115622  1.924000e-17
    0.115641  1.928000e-17
    0.115661  1.931000e-17
    0.115682  1.937000e-17
    0.115700  1.940000e-17
    0.115721  1.945000e-17
    0.115740  1.945000e-17
    0.115761  1.948000e-17
    0.115779  1.954000e-17
    0.115799  1.956000e-17
    0.115820  1.958000e-17
    0.115839  1.960000e-17
    0.115859  1.959000e-17
    0.115879  1.960000e-17
    0.115898  1.961000e-17
    0.115919  1.959000e-17
    0.115937  1.958000e-17
    0.115958  1.957000e-17
    0.115978  1.957000e-17
    0.115997  1.960000e-17
    0.116017  1.962000e-17
    0.116036  1.964000e-17
    0.116056  1.965000e-17
    0.116076  1.971000e-17
    0.116095  1.968000e-17
    0.116116  1.970000e-17
    0.116135  1.970000e-17
    0.116156  1.974000e-17
    0.116174  1.975000e-17
    0.116194  1.973000e-17
    0.116215  1.972000e-17
    0.116234  1.969000e-17
    0.116254  1.971000e-17
    0.116274  1.971000e-17
    0.116293  1.970000e-17
    0.116314  1.977000e-17
    0.116332  1.970000e-17
    0.116353  1.966000e-17
    0.116372  1.968000e-17
    0.116392  1.965000e-17
    0.116412  1.965000e-17
    0.116431  1.966000e-17
    0.116452  1.972000e-17
    0.116471  1.973000e-17
    0.116490  1.971000e-17
    0.116511  1.975000e-17
    0.116530  1.977000e-17
    0.116550  1.981000e-17
    0.116569  1.981000e-17
    0.116589  1.983000e-17
    0.116610  1.986000e-17
    0.116629  1.987000e-17
    0.116649  1.990000e-17
    0.116669  1.982000e-17
    0.116688  1.987000e-17
    0.116709  1.987000e-17
    0.116727  1.984000e-17
    0.116748  1.984000e-17
    0.116768  1.981000e-17
    0.116787  1.983000e-17
    0.116807  1.987000e-17
    0.116827  1.985000e-17
    0.116846  1.991000e-17
    0.116867  1.990000e-17
    0.116885  1.991000e-17
    0.116906  1.997000e-17
    0.116925  1.999000e-17
    0.116945  2.002000e-17
    0.116965  2.006000e-17
    0.116984  2.008000e-17
    0.117005  2.012000e-17
    0.117023  2.012000e-17
    0.117043  2.012000e-17
    0.117064  2.015000e-17
    0.117083  2.019000e-17
    0.117103  2.020000e-17
    0.117122  2.023000e-17
    0.117142  2.027000e-17
    0.117163  2.029000e-17
    0.117181  2.027000e-17
    0.117201  2.032000e-17
    0.117221  2.031000e-17
    0.117241  2.032000e-17
    0.117261  2.036000e-17
    0.117280  2.041000e-17
    0.117300  2.038000e-17
    0.117321  2.047000e-17
    0.117339  2.047000e-17
    0.117360  2.052000e-17
    0.117379  2.054000e-17
    0.117399  2.057000e-17
    0.117419  2.062000e-17
    0.117438  2.064000e-17
    0.117459  2.064000e-17
    0.117478  2.067000e-17
    0.117497  2.068000e-17
    0.117518  2.070000e-17
    0.117537  2.068000e-17
    0.117557  2.068000e-17
    0.117576  2.070000e-17
    0.117596  2.068000e-17
    0.117617  2.070000e-17
    0.117635  2.068000e-17
    0.117655  2.072000e-17
    0.117675  2.072000e-17
    0.117694  2.071000e-17
    0.117714  2.067000e-17
    0.117733  2.069000e-17
    0.117754  2.066000e-17
    0.117774  2.068000e-17
    0.117792  2.066000e-17
    0.117813  2.068000e-17
    0.117833  2.063000e-17
    0.117853  2.062000e-17
    0.117872  2.060000e-17
    0.117891  2.059000e-17
    0.117913  2.054000e-17
    0.117932  2.053000e-17
    0.117950  2.047000e-17
    0.117972  2.049000e-17
    0.117990  2.045000e-17
    0.118010  2.040000e-17
    0.118029  2.044000e-17
    0.118049  2.042000e-17
    0.118071  2.040000e-17
    0.118088  2.038000e-17
    0.118109  2.040000e-17
    0.118129  2.040000e-17
    0.118148  2.042000e-17
    0.118168  2.043000e-17
    0.118187  2.048000e-17
    0.118208  2.048000e-17
    0.118228  2.046000e-17
    0.118246  2.047000e-17
    0.118267  2.047000e-17
    0.118286  2.048000e-17
    0.118306  2.054000e-17
    0.118325  2.060000e-17
    0.118345  2.057000e-17
    0.118366  2.062000e-17
    0.118384  2.064000e-17
    0.118404  2.063000e-17
    0.118425  2.064000e-17
    0.118444  2.067000e-17
    0.118464  2.068000e-17
    0.118483  2.064000e-17
    0.118503  2.064000e-17
    0.118524  2.069000e-17
    0.118542  2.066000e-17
    0.118563  2.067000e-17
    0.118582  2.066000e-17
    0.118602  2.067000e-17
    0.118621  2.061000e-17
    0.118641  2.062000e-17
    0.118662  2.064000e-17
    0.118680  2.069000e-17
    0.118700  2.068000e-17
    0.118720  2.071000e-17
    0.118739  2.069000e-17
    0.118759  2.070000e-17
    0.118779  2.067000e-17
    0.118799  2.065000e-17
    0.118819  2.064000e-17
    0.118837  2.065000e-17
    0.118858  2.066000e-17
    0.118878  2.064000e-17
    0.118897  2.066000e-17
    0.118917  2.068000e-17
    0.118936  2.072000e-17
    0.118958  2.079000e-17
    0.118975  2.074000e-17
    0.118996  2.077000e-17
    0.119016  2.081000e-17
    0.119035  2.086000e-17
    0.119055  2.088000e-17
    0.119074  2.089000e-17
    0.119095  2.095000e-17
    0.119114  2.099000e-17
    0.119133  2.098000e-17
    0.119154  2.097000e-17
    0.119173  2.101000e-17
    0.119193  2.105000e-17
    0.119212  2.104000e-17
    0.119232  2.101000e-17
    0.119253  2.099000e-17
    0.119271  2.102000e-17
    0.119292  2.099000e-17
    0.119311  2.101000e-17
    0.119330  2.102000e-17
    0.119351  2.096000e-17
    0.119370  2.098000e-17
    0.119391  2.099000e-17
    0.119409  2.096000e-17
    0.119429  2.094000e-17
    0.119450  2.093000e-17
    0.119469  2.087000e-17
    0.119489  2.080000e-17
    0.119508  2.079000e-17
    0.119528  2.077000e-17
    0.119547  2.073000e-17
    0.119567  2.069000e-17
    0.119587  2.064000e-17
    0.119607  2.063000e-17
    0.119627  2.058000e-17
    0.119646  2.055000e-17
    0.119666  2.054000e-17
    0.119686  2.046000e-17
    0.119705  2.044000e-17
    0.119725  2.041000e-17
    0.119745  2.040000e-17
    0.119764  2.038000e-17
    0.119784  2.032000e-17
    0.119803  2.039000e-17
    0.119825  2.035000e-17
    0.119842  2.038000e-17
    0.119863  2.037000e-17
    0.119883  2.033000e-17
    0.119901  2.033000e-17
    0.119922  2.035000e-17
    0.119942  2.036000e-17
    0.119963  2.031000e-17
    0.119981  2.033000e-17
    0.120001  2.033000e-17
    0.120021  2.032000e-17
    0.120040  2.037000e-17
    0.120060  2.032000e-17
    0.120080  2.035000e-17
    0.120100  2.032000e-17
    0.120119  2.036000e-17
    0.120139  2.041000e-17
    0.120160  2.047000e-17
    0.120179  2.050000e-17
    0.120198  2.051000e-17
    0.120219  2.055000e-17
    0.120237  2.054000e-17
    0.120258  2.048000e-17
    0.120276  2.048000e-17
    0.120297  2.043000e-17
    0.120317  2.044000e-17
    0.120336  2.040000e-17
    0.120356  2.037000e-17
    0.120375  2.031000e-17
    0.120395  2.026000e-17
    0.120415  2.024000e-17
    0.120435  2.021000e-17
    0.120455  2.013000e-17
    0.120474  2.011000e-17
    0.120495  2.007000e-17
    0.120514  2.009000e-17
    0.120533  2.003000e-17
    0.120554  2.004000e-17
    0.120573  2.001000e-17
    0.120593  2.010000e-17
    0.120612  2.004000e-17
    0.120632  2.005000e-17
    0.120653  2.004000e-17
    0.120671  2.007000e-17
    0.120692  2.006000e-17
    0.120711  2.005000e-17
    0.120731  2.002000e-17
    0.120750  2.007000e-17
    0.120769  2.002000e-17
    0.120791  2.003000e-17
    0.120809  1.996000e-17
    0.120829  1.998000e-17
    0.120849  2.003000e-17
    0.120868  1.996000e-17
    0.120888  1.995000e-17
    0.120907  1.987000e-17
    0.120928  1.991000e-17
    0.120948  1.987000e-17
    0.120966  1.982000e-17
    0.120988  1.981000e-17
    0.121006  1.976000e-17
    0.121026  1.979000e-17
    0.121046  1.971000e-17
    0.121065  1.965000e-17
    0.121086  1.962000e-17
    0.121104  1.962000e-17
    0.121125  1.957000e-17
    0.121145  1.952000e-17
    0.121164  1.949000e-17
    0.121185  1.951000e-17
    0.121203  1.942000e-17
    0.121223  1.943000e-17
    0.121243  1.932000e-17
    0.121262  1.935000e-17
    0.121284  1.926000e-17
    0.121302  1.925000e-17
    0.121322  1.921000e-17
    0.121342  1.915000e-17
    0.121361  1.915000e-17
    0.121382  1.907000e-17
    0.121401  1.905000e-17
    0.121421  1.910000e-17
    0.121440  1.903000e-17
    0.121460  1.906000e-17
    0.121481  1.903000e-17
    0.121499  1.900000e-17
    0.121519  1.901000e-17
    0.121539  1.897000e-17
    0.121559  1.894000e-17
    0.121579  1.900000e-17
    0.121598  1.897000e-17
    0.121618  1.890000e-17
    0.121638  1.898000e-17
    0.121656  1.901000e-17
    0.121678  1.891000e-17
    0.121697  1.890000e-17
    0.121715  1.898000e-17
    0.121736  1.893000e-17
    0.121755  1.891000e-17
    0.121775  1.900000e-17
    0.121795  1.899000e-17
    0.121815  1.893000e-17
    0.121835  1.901000e-17
    0.121853  1.900000e-17
    0.121874  1.900000e-17
    0.121894  1.897000e-17
    0.121913  1.901000e-17
    0.121934  1.901000e-17
    0.121952  1.900000e-17
    0.121972  1.905000e-17
    0.121992  1.900000e-17
    0.122011  1.900000e-17
    0.122032  1.904000e-17
    0.122050  1.907000e-17
    0.122071  1.903000e-17
    0.122091  1.909000e-17
    0.122109  1.912000e-17
    0.122130  1.907000e-17
    0.122149  1.907000e-17
    0.122170  1.909000e-17
    0.122189  1.910000e-17
    0.122208  1.906000e-17
    0.122229  1.896000e-17
    0.122247  1.896000e-17
    0.122268  1.896000e-17
    0.122288  1.900000e-17
    0.122306  1.900000e-17
    0.122327  1.900000e-17
    0.122347  1.899000e-17
    0.122366  1.901000e-17
    0.122386  1.898000e-17
    0.122405  1.894000e-17
    0.122426  1.903000e-17
    0.122445  1.899000e-17
    0.122464  1.900000e-17
    0.122485  1.899000e-17
    0.122504  1.895000e-17
    0.122524  1.888000e-17
    0.122544  1.892000e-17
    0.122563  1.898000e-17
    0.122584  1.891000e-17
    0.122602  1.889000e-17
    0.122623  1.889000e-17
    0.122642  1.892000e-17
    0.122661  1.888000e-17
    0.122682  1.894000e-17
    0.122701  1.893000e-17
    0.122720  1.889000e-17
    0.122741  1.892000e-17
    0.122760  1.896000e-17
    0.122780  1.895000e-17
    0.122799  1.899000e-17
    0.122819  1.892000e-17
    0.122839  1.900000e-17
    0.122858  1.900000e-17
    0.122879  1.898000e-17
    0.122898  1.898000e-17
    0.122917  1.896000e-17
    0.122938  1.891000e-17
    0.122957  1.900000e-17
    0.122977  1.896000e-17
    0.122996  1.896000e-17
    0.123016  1.893000e-17
    0.123036  1.890000e-17
    0.123054  1.897000e-17
    0.123076  1.893000e-17
    0.123095  1.893000e-17
    0.123114  1.896000e-17
    0.123135  1.893000e-17
    0.123153  1.897000e-17
    0.123173  1.899000e-17
    0.123193  1.897000e-17
    0.123213  1.898000e-17
    0.123233  1.895000e-17
    0.123251  1.893000e-17
    0.123272  1.898000e-17
    0.123292  1.905000e-17
    0.123310  1.904000e-17
    0.123332  1.902000e-17
    0.123350  1.905000e-17
    0.123370  1.903000e-17
    0.123390  1.902000e-17
    0.123409  1.906000e-17
    0.123430  1.899000e-17
    0.123448  1.901000e-17
    0.123469  1.904000e-17
    0.123489  1.908000e-17
    0.123507  1.901000e-17
    0.123529  1.898000e-17
    0.123547  1.903000e-17
    0.123567  1.902000e-17
    0.123587  1.903000e-17
    0.123606  1.900000e-17
    0.123626  1.903000e-17
    0.123645  1.908000e-17
    0.123666  1.908000e-17
    0.123686  1.913000e-17
    0.123704  1.911000e-17
    0.123725  1.915000e-17
    0.123744  1.914000e-17
    0.123764  1.918000e-17
    0.123784  1.920000e-17
    0.123803  1.920000e-17
    0.123823  1.922000e-17
    0.123842  1.921000e-17
    0.123862  1.922000e-17
    0.123882  1.921000e-17
    0.123901  1.919000e-17
    0.123922  1.922000e-17
    0.123941  1.922000e-17
    0.123960  1.921000e-17
    0.123980  1.919000e-17
    0.124000  1.914000e-17
    0.124020  1.912000e-17
    0.124039  1.915000e-17
    0.124060  1.915000e-17
    0.124078  1.913000e-17
    0.124098  1.916000e-17
    0.124118  1.913000e-17
    0.124137  1.915000e-17
    0.124157  1.919000e-17
    0.124177  1.918000e-17
    0.124197  1.921000e-17
    0.124216  1.916000e-17
    0.124236  1.923000e-17
    0.124256  1.922000e-17
    0.124275  1.925000e-17
    0.124295  1.925000e-17
    0.124315  1.923000e-17
    0.124334  1.921000e-17
    0.124355  1.920000e-17
    0.124374  1.920000e-17
    0.124394  1.920000e-17
    0.124413  1.921000e-17
    0.124432  1.919000e-17
    0.124453  1.918000e-17
    0.124471  1.922000e-17
    0.124492  1.928000e-17
    0.124512  1.930000e-17
    0.124531  1.931000e-17
    0.124551  1.933000e-17
    0.124570  1.924000e-17
    0.124590  1.926000e-17
    0.124609  1.934000e-17
    0.124629  1.932000e-17
    0.126000  1.950000e-17
    0.127000  1.950000e-17
    0.128000  1.930000e-17
    0.129000  1.860000e-17
    0.130000  1.780000e-17
    0.131000  1.630000e-17
    0.132000  1.430000e-17
    0.133000  1.210000e-17
    0.134000  9.800000e-18
    0.135000  7.600000e-18
    0.136000  5.300000e-18
    0.137000  3.600000e-18
    0.138000  2.300000e-18
    0.139000  1.300000e-18
    0.140000  6.900000e-19
    0.141000  3.300000e-19
    0.142000  1.500000e-19
    0.143000  6.100000e-20
    0.144000  1.800000e-20
    0.145000  6.300000e-21
    0.146000  2.000000e-21
    0.147000  6.800000e-22
    0.148000  2.200000e-22
    0.149000  6.800000e-23
    0.150000  2.500000e-23
    0.151000  1.100000e-23
    0.152000  4.500000e-24
    0.153000  0.000000e+00
    0.154000  0.000000e+00
    0.405000  0.000000e+00
    0.406000  2.600000e-28
    0.407000  2.230000e-28
    0.408000  3.720000e-29
    0.409000  0.000000e+00
    0.410000  3.720000e-29
    0.411000  0.000000e+00
    0.412000  0.000000e+00
    0.413000  0.000000e+00
    0.414000  0.000000e+00
    0.415000  0.000000e+00
    0.416000  0.000000e+00
    0.417000  0.000000e+00
    0.418000  0.000000e+00
    0.419000  1.490000e-28
    0.420000  3.350000e-28
    0.421000  1.860000e-28
    0.422000  0.000000e+00
    0.423000  0.000000e+00
    0.424000  0.000000e+00
    0.425000  0.000000e+00
    0.426000  0.000000e+00
    0.427000  0.000000e+00
    0.428000  0.000000e+00
    0.429000  0.000000e+00
    0.430000  3.720000e-29
    0.431000  0.000000e+00
    0.432000  7.440000e-29
    0.433000  1.860000e-28
    0.434000  1.860000e-28
    0.435000  7.440000e-29
    0.436000  3.720000e-28
    0.437000  5.210000e-28
    0.438000  3.350000e-28
    0.439000  2.600000e-28
    0.440000  1.340000e-27
    0.441000  2.640000e-27
    0.442000  1.970000e-27
    0.443000  7.440000e-28
    0.444000  2.230000e-28
    0.445000  0.000000e+00
    0.446000  0.000000e+00
    0.447000  0.000000e+00
    0.448000  0.000000e+00
    0.449000  3.720000e-29
    0.450000  3.720000e-29
    0.451000  7.440000e-29
    0.452000  1.120000e-28
    0.453000  1.490000e-28
    0.454000  2.600000e-28
    0.455000  3.350000e-28
    0.456000  4.090000e-28
    0.457000  5.580000e-28
    0.458000  8.180000e-28
    0.459000  1.450000e-27
    0.460000  1.600000e-27
    0.461000  6.320000e-28
    0.462000  1.860000e-28
    0.463000  7.440000e-29
    0.464000  1.120000e-28
    0.465000  1.860000e-28
    0.466000  2.980000e-28
    0.467000  2.230000e-28
    0.468000  1.490000e-28
    0.469000  7.440000e-29
    0.470000  1.120000e-28
    0.471000  7.440000e-29
    0.472000  1.490000e-28
    0.473000  1.860000e-28
    0.474000  1.490000e-28
    0.475000  2.980000e-28
    0.476000  3.720000e-28
    0.477000  5.950000e-28
    0.478000  8.930000e-28
    0.479000  1.300000e-27
    0.480000  1.970000e-27
    0.481000  2.680000e-27
    0.482000  3.530000e-27
    0.483000  3.910000e-27
    0.484000  5.430000e-27
    0.485000  1.230000e-26
    0.486000  1.440000e-26
    0.487000  6.180000e-27
    0.488000  2.340000e-27
    0.489000  6.700000e-28
    0.490000  2.600000e-28
    0.491000  2.230000e-28
    0.492000  1.490000e-28
    0.493000  1.490000e-28
    0.494000  1.120000e-28
    0.495000  1.120000e-28
    0.496000  1.490000e-28
    0.497000  2.230000e-28
    0.498000  2.600000e-28
    0.499000  4.460000e-28
    0.500000  5.210000e-28
    0.501000  6.700000e-28
    0.502000  9.300000e-28
    0.503000  1.260000e-27
    0.504000  1.640000e-27
    0.505000  1.970000e-27
    0.506000  2.530000e-27
    0.507000  3.240000e-27
    0.508000  4.350000e-27
    0.509000  5.360000e-27
    0.510000  5.840000e-27
    0.511000  5.210000e-27
    0.512000  3.160000e-27
    0.513000  1.600000e-27
    0.514000  7.070000e-28
    0.515000  4.090000e-28
    0.516000  3.720000e-27
    0.517000  3.720000e-27
    0.518000  7.070000e-28
    0.519000  1.080000e-27
    0.520000  1.670000e-27
    0.521000  2.120000e-27
    0.522000  2.460000e-27
    0.523000  2.380000e-27
    0.524000  2.050000e-27
    0.525000  1.560000e-27
    0.526000  1.230000e-27
    0.527000  9.300000e-28
    0.528000  9.670000e-28
    0.529000  1.120000e-27
    0.530000  1.260000e-27
    0.531000  1.710000e-27
    0.532000  2.600000e-27
    0.533000  3.530000e-27
    0.534000  4.460000e-27
    0.535000  5.800000e-27
    0.536000  8.180000e-27
    0.537000  1.160000e-26
    0.538000  1.650000e-26
    0.539000  1.990000e-26
    0.540000  2.670000e-26
    0.541000  3.800000e-26
    0.542000  5.280000e-26
    0.543000  5.830000e-26
    0.544000  4.850000e-26
    0.545000  2.890000e-26
    0.546000  1.390000e-26
    0.547000  5.880000e-27
    0.548000  2.380000e-27
    0.549000  1.000000e-27
    0.550000  4.090000e-28
    0.551000  2.230000e-28
    0.552000  1.860000e-28
    0.553000  3.720000e-28
    0.554000  7.070000e-28
    0.555000  1.120000e-27
    0.556000  1.380000e-27
    0.557000  1.490000e-27
    0.558000  1.340000e-27
    0.559000  1.300000e-27
    0.560000  1.080000e-27
    0.561000  9.670000e-28
    0.562000  1.150000e-27
    0.563000  1.230000e-27
    0.564000  1.560000e-27
    0.565000  1.860000e-27
    0.566000  2.980000e-27
    0.567000  3.720000e-27
    0.568000  4.840000e-27
    0.569000  5.580000e-27
    0.570000  6.320000e-27
    0.571000  7.810000e-27
    0.572000  8.930000e-27
    0.573000  1.080000e-26
    0.574000  1.410000e-26
    0.575000  1.710000e-26
    0.576000  1.860000e-26
    0.577000  1.640000e-26
    0.578000  1.490000e-26
    0.579000  1.120000e-26
    0.580000  7.440000e-27
    0.581000  4.460000e-27
    0.582000  2.980000e-27
    0.583000  1.860000e-27
    0.584000  1.120000e-27
    0.585000  7.440000e-28
    0.586000  3.720000e-28
    0.587000  3.720000e-28
    0.588000  3.720000e-28
    0.589000  3.720000e-28
    0.590000  1.120000e-27
    0.591000  2.230000e-27
    0.592000  3.350000e-27
    0.593000  5.210000e-27
    0.594000  7.070000e-27
    0.595000  1.000000e-26
    0.596000  1.230000e-26
    0.597000  1.120000e-26
    0.598000  1.120000e-26
    0.599000  9.670000e-27
    0.600000  8.180000e-27
    0.601000  6.700000e-27
    0.602000  4.840000e-27
    0.603000  3.720000e-27
    0.604000  2.980000e-27
    0.605000  3.350000e-27
    0.606000  4.840000e-27
    0.607000  7.440000e-27
    0.608000  1.120000e-26
    0.609000  1.410000e-26
    0.610000  1.530000e-26
    0.611000  2.050000e-26
    0.612000  3.270000e-26
    0.613000  5.620000e-26
    0.614000  9.150000e-26
    0.615000  1.150000e-25
    0.616000  1.320000e-25
    0.617000  1.500000e-25
    0.618000  2.200000e-25
    0.619000  2.620000e-25
    0.620000  2.540000e-25
    0.621000  2.110000e-25
    0.622000  1.700000e-25
    0.623000  1.180000e-25
    0.624000  7.220000e-26
    0.625000  4.320000e-26
    0.626000  2.570000e-26
    0.627000  1.530000e-26
    0.628000  9.670000e-27
    0.629000  5.580000e-27
    0.630000  3.350000e-27
    0.631000  1.860000e-27
    0.632000  1.490000e-27
    0.633000  1.120000e-27
    0.634000  1.120000e-27
    0.635000  1.490000e-27
    0.636000  1.860000e-27
    0.637000  2.600000e-27
    0.638000  2.980000e-27
    0.639000  4.460000e-27
    0.640000  5.580000e-27
    0.641000  7.440000e-27
    0.642000  9.670000e-27
    0.643000  1.040000e-26
    0.644000  8.930000e-27
    0.645000  8.180000e-27
    0.646000  8.560000e-27
    0.647000  7.810000e-27
    0.648000  8.560000e-27
    0.649000  1.230000e-26
    0.650000  1.410000e-26
    0.651000  1.490000e-26
    0.652000  1.410000e-26
    0.653000  1.600000e-26
    0.654000  1.970000e-26
    0.655000  2.270000e-26
    0.656000  3.090000e-26
    0.657000  2.900000e-26
    0.658000  3.050000e-26
    0.659000  3.390000e-26
    0.660000  3.460000e-26
    0.661000  3.570000e-26
    0.662000  4.130000e-26
    0.663000  4.840000e-26
    0.664000  1.190000e-25
    0.665000  5.060000e-26
    0.666000  6.400000e-26
    0.667000  6.550000e-26
    0.668000  6.290000e-26
    0.669000  5.650000e-26
    0.670000  4.580000e-26
    0.671000  3.530000e-26
    0.672000  2.460000e-26
    0.673000  1.560000e-26
    0.674000  1.080000e-26
    0.675000  6.700000e-27
    0.676000  3.350000e-27
    0.677000  2.230000e-27
    0.678000  1.490000e-27
    0.679000  2.980000e-27
    0.680000  7.440000e-27
    0.681000  1.040000e-26
    0.682000  1.790000e-26
    0.683000  2.270000e-26
    0.684000  2.010000e-26
    0.685000  1.640000e-26
    0.686000  1.450000e-26
    0.687000  1.490000e-26
    0.688000  8.930000e-27
    0.689000  1.000000e-26
    0.690000  5.950000e-27
    0.691000  6.700000e-27
    0.692000  6.320000e-27
    0.693000  7.810000e-27
    0.694000  9.300000e-27
    0.695000  1.380000e-26
    0.696000  2.340000e-26
    0.697000  3.830000e-26
    0.698000  4.460000e-26
    0.699000  6.030000e-26
    0.700000  9.080000e-26
    0.701000  1.090000e-25
    0.702000  1.320000e-25
    0.703000  1.250000e-25
    0.704000  1.240000e-25
    0.705000  1.110000e-25
    0.706000  7.770000e-26
    0.707000  7.550000e-26
    0.708000  5.730000e-26
    0.709000  4.800000e-26
    0.710000  4.540000e-26
    0.711000  3.120000e-26
    0.712000  3.200000e-26
    0.713000  3.270000e-26
    0.714000  2.900000e-26
    0.715000  4.320000e-26
    0.716000  8.560000e-26
    0.717000  1.660000e-25
    0.718000  2.590000e-25
    0.719000  3.400000e-25
    0.720000  4.690000e-25
    0.721000  5.170000e-25
    0.722000  5.840000e-25
    0.723000  6.360000e-25
    0.724000  8.070000e-25
    0.725000  1.220000e-24
    0.726000  1.480000e-24
    0.727000  1.630000e-24
    0.728000  1.560000e-24
    0.729000  1.140000e-24
    0.730000  1.030000e-24
    0.731000  7.400000e-25
    0.732000  5.770000e-25
    0.733000  5.130000e-25
    0.734000  3.790000e-25
    0.735000  2.930000e-25
    0.736000  2.150000e-25
    0.737000  1.840000e-25
    0.738000  1.280000e-25
    0.739000  8.520000e-26
    0.740000  5.320000e-26
    0.741000  3.160000e-26
    0.742000  1.930000e-26
    0.743000  1.150000e-26
    0.744000  6.320000e-27
    0.745000  5.210000e-27
    0.746000  4.460000e-27
    0.747000  5.210000e-27
    0.748000  4.460000e-27
    0.749000  4.090000e-27
    0.750000  5.210000e-27
    0.751000  3.720000e-27
    0.752000  4.090000e-27
    0.753000  3.720000e-27
    0.754000  2.600000e-27
    0.755000  4.090000e-27
    0.756000  5.580000e-27
    0.757000  8.560000e-27
    0.758000  1.230000e-26
    0.759000  1.560000e-26
    0.760000  2.900000e-26
    0.761000  3.390000e-26
    0.762000  4.200000e-26
    0.763000  4.980000e-26
    0.764000  5.250000e-26
    0.765000  5.770000e-26
    0.766000  5.280000e-26
    0.767000  6.660000e-26
    0.768000  5.250000e-26
    0.769000  5.620000e-26
    0.770000  5.360000e-26
    0.771000  6.030000e-26
    0.772000  6.140000e-26
    0.773000  9.190000e-26
    0.774000  9.630000e-26
    0.775000  9.190000e-26
    0.776000  1.110000e-25
    0.777000  1.200000e-25
    0.778000  1.380000e-25
    0.779000  1.580000e-25
    0.780000  2.060000e-25
    0.781000  2.790000e-25
    0.782000  2.900000e-25
    0.783000  3.050000e-25
    0.784000  3.610000e-25
    0.785000  2.490000e-25
    0.786000  2.680000e-25
    0.787000  2.530000e-25
    0.788000  2.270000e-25
    0.789000  2.120000e-25
    0.790000  2.050000e-25
    0.791000  2.160000e-25
    0.792000  2.600000e-25
    0.793000  3.120000e-25
    0.794000  3.050000e-25
    0.795000  3.610000e-25
    0.796000  3.650000e-25
    0.797000  3.870000e-25
    0.798000  3.940000e-25
    0.799000  3.790000e-25
    0.800000  3.350000e-25
    0.801000  2.980000e-25
    0.802000  3.050000e-25
    0.803000  2.570000e-25
    0.804000  2.420000e-25
    0.805000  2.160000e-25
    0.806000  1.930000e-25
    0.807000  1.560000e-25
    0.808000  1.410000e-25
    0.809000  1.410000e-25
    0.810000  1.300000e-25
    0.811000  1.190000e-25
    0.812000  9.300000e-26
    0.813000  7.810000e-26
    0.814000  6.320000e-26
    0.815000  5.580000e-26
    0.816000  4.840000e-26
    0.817000  3.350000e-26
    0.818000  2.980000e-26
    0.819000  2.600000e-26
    0.820000  1.860000e-26
    0.821000  1.490000e-26
    0.822000  1.490000e-26
    0.823000  1.120000e-26
    0.824000  1.120000e-26
    0.825000  1.120000e-26
    0.826000  1.120000e-26
    0.827000  7.440000e-27
    0.828000  7.440000e-27
    0.829000  7.440000e-27
    0.830000  3.720000e-27
    0.831000  3.720000e-27
    0.832000  3.720000e-27
    0.833000  1.120000e-26
    0.834000  2.230000e-26
    0.835000  5.580000e-26
    0.836000  1.000000e-25
    0.837000  1.450000e-25
    0.838000  2.050000e-25
    0.839000  2.750000e-25
    0.840000  2.230000e-25
    0.841000  3.120000e-25
    0.842000  3.310000e-25
    0.843000  1.750000e-25
    0.844000  2.190000e-25
    0.845000  1.820000e-25
    0.846000  1.190000e-25
    0.847000  1.190000e-25
    0.848000  1.150000e-25
    0.849000  9.300000e-26
    0.850000  9.670000e-26
    0.851000  1.150000e-25
    0.852000  1.380000e-25
    0.853000  1.860000e-25
    0.854000  2.640000e-25
    0.855000  3.270000e-25
    0.856000  3.760000e-25
    0.857000  5.130000e-25
    0.858000  6.810000e-25
    0.859000  7.480000e-25
    0.860000  9.340000e-25
    0.861000  1.300000e-24
    0.862000  1.720000e-24
    0.863000  1.700000e-24
    0.864000  1.770000e-24
    0.865000  1.630000e-24
    0.866000  1.420000e-24
    0.867000  1.290000e-24
    0.868000  9.230000e-25
    0.869000  7.440000e-25
    0.870000  6.620000e-25
    0.871000  5.620000e-25
    0.872000  4.460000e-25
    0.873000  3.980000e-25
    0.874000  3.870000e-25
    0.875000  3.760000e-25
    0.876000  4.020000e-25
    0.877000  4.240000e-25
    0.878000  4.870000e-25
    0.879000  5.690000e-25
    0.880000  1.210000e-24
    0.881000  2.460000e-24
    0.882000  6.730000e-24
    0.883000  1.010000e-23
    0.884000  1.060000e-23
    0.885000  6.620000e-24
    0.886000  7.250000e-24
    0.887000  1.480000e-23
    0.888000  1.420000e-23
    0.889000  9.750000e-24
    0.890000  8.970000e-24
    0.891000  9.710000e-24
    0.892000  8.410000e-24
    0.893000  8.740000e-24
    0.894000  1.070000e-23
    0.895000  1.000000e-23
    0.896000  9.970000e-24
    0.897000  5.990000e-24
    0.898000  5.170000e-24
    0.899000  5.620000e-24
    0.900000  4.720000e-24
    0.901000  3.400000e-24
    0.902000  2.490000e-24
    0.903000  2.670000e-24
    0.904000  1.240000e-24
    0.905000  9.900000e-25
    0.906000  6.990000e-25
    0.907000  5.320000e-25
    0.908000  4.200000e-25
    0.909000  3.390000e-25
    0.910000  2.830000e-25
    0.911000  3.160000e-25
    0.912000  3.570000e-25
    0.913000  4.050000e-25
    0.914000  3.390000e-25
    0.915000  3.120000e-25
    0.916000  3.010000e-25
    0.917000  2.680000e-25
    0.918000  1.970000e-25
    0.919000  1.860000e-25
    0.920000  1.710000e-25
    0.921000  1.410000e-25
    0.922000  1.190000e-25
    0.923000  1.040000e-25
    0.924000  8.560000e-26
    0.925000  6.700000e-26
    0.926000  6.700000e-26
    0.927000  5.950000e-26
    0.928000  4.840000e-26
    0.929000  3.350000e-26
    0.930000  2.980000e-26
    0.931000  2.230000e-26
    0.932000  1.860000e-26
    0.933000  1.860000e-26
    0.934000  1.120000e-26
    0.935000  7.440000e-27
    0.936000  7.440000e-27
    0.937000  7.440000e-27
    0.938000  3.720000e-27
    0.939000  3.720000e-27
    0.940000  7.440000e-27
    0.941000  7.440000e-27
    0.942000  1.490000e-26
    0.943000  2.230000e-26
    0.944000  2.980000e-26
    0.945000  3.720000e-26
    0.946000  5.210000e-26
    0.947120  1.050000e-25
    0.948170  1.110000e-25
    0.949610  8.790000e-26
    0.952580  4.660000e-25
    0.954430  2.020000e-25
    0.957150  3.230000e-25
    0.959290  4.540000e-25
    0.961550  5.850000e-25
    0.963310  8.330000e-25
    0.964380  1.260000e-24
    0.965390  8.350000e-25
    0.966770  1.210000e-24
    0.968180  8.390000e-25
    0.969640  1.760000e-24
    0.970690  3.040000e-24
    0.971640  7.030000e-24
    0.971900  3.100000e-24
    0.972140  2.050000e-24
    0.973050  1.880000e-24
    0.974380  1.430000e-24
    0.975270  1.940000e-24
    0.975650  2.560000e-24
    0.976350  3.010000e-24
    0.977980  2.710000e-24
    0.979180  3.260000e-24
    0.980220  2.990000e-24
    0.981200  3.970000e-24
    0.982880  3.100000e-24
    0.983900  3.450000e-24
    0.985470  2.900000e-24
    0.986420  2.330000e-24
    0.987860  2.780000e-24
    0.988340  3.710000e-24
    0.988700  5.070000e-24
    0.989380  8.680000e-24
    0.989620  5.280000e-24
    0.990190  4.170000e-24
    0.991610  5.260000e-24
    0.992590  4.350000e-24
    0.993160  3.410000e-24
    0.993660  3.920000e-24
    0.994840  3.460000e-24
    0.995120  4.250000e-24
    0.995940  4.810000e-24
    0.996990  5.100000e-24
    0.998050  4.940000e-24
    0.998980  5.510000e-24
    0.999330  7.410000e-24
    0.999630  5.440000e-24
    1.000180  4.920000e-24
    1.001190  6.120000e-24
    1.002100  4.860000e-24
    1.003140  5.590000e-24
    1.003700  4.970000e-24
    1.004800  4.360000e-24
    1.006060  5.160000e-24
    1.006520  4.530000e-24
    1.007470  5.030000e-24
    1.007930  4.330000e-24
    1.008950  3.450000e-24
    1.009570  3.960000e-24
    1.010870  4.170000e-24
    1.012790  5.100000e-24
    1.013260  3.820000e-24
    1.013280  3.820000e-24
    1.015020  4.260000e-24
    1.015580  3.840000e-24
    1.016560  4.060000e-24
    1.017250  3.530000e-24
    1.017600  2.720000e-24
    1.017960  2.510000e-24
    1.020280  2.440000e-24
    1.021340  3.610000e-24
    1.021830  2.580000e-24
    1.022180  2.150000e-24
    1.023070  2.310000e-24
    1.023860  1.980000e-24
    1.025110  1.600000e-24
    1.027760  2.420000e-24
    1.028140  1.620000e-24
    1.029280  1.150000e-24
    1.031780  1.060000e-24
    1.032810  7.600000e-25
    1.035540  7.820000e-25
    1.038310  4.600000e-25
    1.039910  4.910000e-25
    1.042340  3.460000e-25
    1.045250  2.790000e-25
    1.047230  2.120000e-25
    1.050400  1.660000e-25
    1.053230  1.200000e-25
